sep=;
ACCELEROMETER X (m/s²);ACCELEROMETER Y (m/s²);ACCELEROMETER Z (m/s²);GRAVITY X (m/s²);GRAVITY Y (m/s²);GRAVITY Z (m/s²);LINEAR ACCELERATION X (m/s²);LINEAR ACCELERATION Y (m/s²);LINEAR ACCELERATION Z (m/s²);GYROSCOPE X (rad/s);GYROSCOPE Y (rad/s);GYROSCOPE Z (rad/s);LIGHT (lux);MAGNETIC FIELD X (μT);MAGNETIC FIELD Y (μT);MAGNETIC FIELD Z (μT);ORIENTATION Z (azimuth °);ORIENTATION X (pitch °);ORIENTATION Y (roll °);PROXIMITY (i);SOUND LEVEL (dB);LOCATION Latitude : ;LOCATION Longitude : ;LOCATION Altitude ( m);LOCATION Altitude-google ( m);LOCATION Speed ( Kmh);LOCATION Accuracy ( m);LOCATION ORIENTATION (°);Satellites in range;Time since start in ms ;YYYY-MO-DD HH-MI-SS_SSS
-0.0126;4.3056;8.9862;-0.0831;4.3736;8.777;0.0153;-0.0625;0.2897;0.0529;-0.1402;0.0803;89.0;-21.36;-115.43;-66.03;163.62;-26.49;0.54;5.0;34.507;42.490936;-83.281166;583.87;689.9419180434625;0.0;14.680644;;14 / 23;7;2018-04-03 08:07:41:672
1.0522;4.4181;8.549;0.3771;4.4599;8.7257;0.6919;-9.0E-4;-0.0189;-0.2065;-0.3698;-0.4078;95.0;-25.64;-118.06;-64.19;162.91;-27.05;-2.47;5.0;34.308;42.490936;-83.281166;583.87;689.9419180434625;0.0;14.680644;;14 / 23;506;2018-04-03 08:07:42:171
-2.1183;3.6901;6.9194;-0.73;5.7076;7.9411;-1.5767;-1.7303;-1.189;-0.348;0.3199;1.8161;26.0;-24.9;-115.98;-66.29;151.68;-35.59;5.25;5.0;36.61;42.490936;-83.281166;583.87;689.9419180434625;0.0;14.680644;;14 / 23;1007;2018-04-03 08:07:42:672
-2.1368;5.0414;14.1565;-1.2524;5.1044;8.2793;-0.6814;-0.0164;4.0478;-0.0927;0.5505;-0.2069;30.0;-16.02;-116.46;-65.69;158.83;-31.37;8.6;5.0;47.652;42.490936;-83.281166;583.87;689.9419180434625;0.0;14.680644;;14 / 23;1507;2018-04-03 08:07:43:172
-2.397;4.1393;8.5071;-2.3591;4.1621;8.5605;-0.0807;0.0136;0.0233;-0.0028;0.001;0.0031;62.0;-7.63;-113.69;-64.05;162.41;-25.11;15.41;5.0;43.152;42.490936;-83.281166;583.87;689.9419180434625;0.0;14.680644;;14 / 23;2006;2018-04-03 08:07:43:671
-2.3498;4.1453;8.4413;-2.3891;4.1705;8.5481;0.0214;-4.0E-4;-0.0705;-0.002;0.0012;0.0034;62.0;-9.84;-114.05;-64.34;161.02;-25.17;15.62;5.0;34.726;42.490936;-83.281166;583.87;689.9419180434625;0.0;14.680644;;14 / 23;2506;2018-04-03 08:07:44:171
-2.3701;4.1304;8.4784;-2.4291;4.1766;8.5338;0.048;-0.0282;6.0E-4;-0.001;4.0E-4;0.003;85.0;-10.49;-114.18;-64.44;160.91;-25.21;15.77;5.0;36.971;42.490936;-83.281166;583.87;689.9419180434625;0.0;14.680644;;14 / 23;3007;2018-04-03 08:07:44:672
-2.4114;4.1549;8.4293;-2.4391;4.1772;8.5307;0.0311;-0.0276;0.0331;4.0E-4;0.001;0.0039;85.0;-10.96;-114.59;-64.39;160.4;-25.21;15.96;5.0;33.375;42.490936;-83.281166;583.87;689.9419180434625;0.0;14.680644;;14 / 23;3506;2018-04-03 08:07:45:171
-2.1829;4.1992;7.2736;-2.4434;4.1786;8.5287;-0.177;6.0E-4;0.0765;-0.001;-6.0E-4;0.0033;85.0;-11.08;-114.67;-64.71;160.11;-25.22;15.99;5.0;35.4;42.490936;-83.281166;583.87;689.9419180434625;0.0;14.680644;;13 / 23;4006;2018-04-03 08:07:45:671
-2.3713;4.1567;8.4652;-2.4427;4.1737;8.5313;-0.0718;-0.0093;0.1222;-0.0016;-0.0018;0.003;85.0;-11.74;-115.26;-64.04;159.81;-25.19;15.98;5.0;34.984;42.490936;-83.281166;583.87;689.9419180434625;0.0;14.680644;;13 / 23;4506;2018-04-03 08:07:46:171
-2.3905;4.1872;9.1932;-2.266;4.2167;8.5589;-0.0757;-0.0786;0.513;0.019;-0.091;-0.1216;77.0;-18.71;-117.23;-60.51;157.13;-25.18;16.0;5.0;34.846;42.490936;-83.281166;583.87;689.9419180434625;0.0;14.680644;;14 / 23;5007;2018-04-03 08:07:46:672
9.0741;3.6099;0.7214;4.1411;5.5031;6.9813;4.3576;-2.11;-6.2732;-1.4058;-5.7818;2.6517;66.0;-29.41;-134.91;-55.4;182.32;-34.14;-30.68;5.0;51.108;42.490936;-83.281166;583.87;689.9419180434625;0.0;14.680644;;14 / 23;5506;2018-04-03 08:07:47:171
2.4263;4.7932;8.0201;2.3542;4.839;8.1983;0.1408;-0.0386;-0.0949;-0.0037;0.0013;0.0042;58.0;-41.81;-138.6;-52.91;164.05;-29.57;-16.02;5.0;36.686;42.490936;-83.281166;583.87;689.9419180434625;0.0;14.680644;;14 / 23;6007;2018-04-03 08:07:47:672
2.4885;4.7459;8.1487;2.3645;4.8253;8.2034;0.129;-0.0363;-0.034;-0.0016;0.0016;0.0035;51.0;-40.86;-134.76;-55.38;164.3;-29.47;-16.08;5.0;33.75;42.490936;-83.281166;583.87;689.9419180434625;0.0;14.680644;;14 / 23;6507;2018-04-03 08:07:48:172
2.4526;4.7878;8.2032;2.3719;4.8063;8.2125;0.0585;0.0011;0.0705;-1.0E-4;3.0E-4;0.0045;47.0;-40.27;-134.14;-55.91;164.93;-29.35;-16.11;5.0;34.556;42.490936;-83.281166;583.87;689.9419180434625;0.0;14.680644;;15 / 23;7006;2018-04-03 08:07:48:671
2.4514;4.7537;8.1906;2.3752;4.8064;8.2114;0.093;-0.0462;0.0556;-0.0036;4.0E-4;0.0043;42.0;-40.66;-133.52;-56.86;164.41;-29.35;-16.13;5.0;42.501;42.490936;-83.281166;583.87;689.9419180434625;0.0;14.680644;;15 / 23;7506;2018-04-03 08:07:49:171
2.3192;4.8913;8.2104;2.3744;4.8054;8.2122;-0.1162;0.0824;-0.0691;-1.0E-4;5.0E-4;0.0042;44.0;-43.23;-130.74;-60.81;162.99;-29.34;-16.13;5.0;39.043;42.490936;-83.281166;583.87;689.9419180434625;0.0;14.680644;;14 / 23;8007;2018-04-03 08:07:49:672
2.3413;4.7226;8.2421;2.3743;4.8007;8.215;0.106;0.0301;-0.1868;-0.0016;0.0011;0.0037;46.0;-43.38;-130.03;-60.48;162.73;-29.31;-16.12;5.0;42.312;42.490936;-83.281166;583.87;689.9419180434625;0.0;14.680644;;14 / 23;8507;2018-04-03 08:07:50:172
2.2911;4.798;8.1517;2.3815;4.7952;8.2161;-0.1009;0.0028;-0.1076;1.0E-4;-8.0E-4;0.0047;47.0;-41.15;-131.92;-57.1;164.15;-29.27;-16.16;5.0;42.787;42.490936;-83.281166;583.87;689.9419180434625;0.0;14.680644;;14 / 23;9007;2018-04-03 08:07:50:672
2.2199;4.8356;8.2181;2.3756;4.7975;8.2165;-0.0944;0.007;-0.0207;-0.0013;2.0E-4;0.0039;39.0;-41.31;-131.56;-57.11;164.15;-29.27;-16.16;5.0;32.809;42.490936;-83.281166;583.87;689.9419180434625;0.0;14.680644;;14 / 23;9507;2018-04-03 08:07:51:172
2.3389;4.6939;8.1757;2.3717;4.7928;8.2204;0.0165;-0.1244;0.0387;6.0E-4;-0.001;0.0038;46.0;-41.04;-131.43;-57.03;163.95;-29.3;-16.13;5.0;32.762;42.490936;-83.281166;583.87;689.9419180434625;0.0;14.680644;;14 / 23;10006;2018-04-03 08:07:51:671
2.3084;4.5832;8.3294;2.3657;4.7244;8.2616;0.0586;-0.1438;0.1269;0.0025;0.0033;0.0099;46.0;-40.76;-132.17;-57.26;164.1;-29.26;-16.09;5.0;33.279;42.490936;-83.281166;583.87;689.9419180434625;0.0;14.680644;;14 / 23;10506;2018-04-03 08:07:52:171
2.3096;4.7716;8.2654;2.3609;4.7343;8.2573;0.0037;-0.0221;0.061;0.0041;0.0046;0.0125;48.0;-41.22;-132.03;-57.21;164.16;-28.87;-15.96;5.0;33.561;42.490936;-83.281166;583.87;689.9419180434625;0.0;14.680644;;14 / 23;11006;2018-04-03 08:07:52:671
2.3671;4.8572;8.2714;2.3606;4.7584;8.2435;-0.0393;0.0801;-0.0288;0.0017;0.0063;0.0112;48.0;-40.62;-132.7;-57.09;164.31;-28.87;-15.96;5.0;33.841;42.490936;-83.281166;583.87;689.9419180434625;0.0;14.680644;;14 / 23;11506;2018-04-03 08:07:53:171
2.2289;4.7986;8.2379;2.3566;4.7914;8.2255;-0.0433;-0.0483;0.0375;0.0055;0.0063;0.0119;51.0;-40.67;-132.23;-56.93;164.03;-29.25;-15.99;5.0;33.81;42.490936;-83.281166;583.87;689.9419180434625;0.0;14.680644;;14 / 23;12007;2018-04-03 08:07:53:672
2.3563;4.7794;8.1625;2.3557;4.786;8.229;-0.0166;-0.0087;-0.0601;0.0049;0.0067;0.0135;51.0;-41.04;-132.53;-57.04;164.2;-29.21;-15.97;5.0;33.634;42.490936;-83.281166;583.87;689.9419180434625;0.0;14.680644;;14 / 23;12506;2018-04-03 08:07:54:171
2.3725;4.582;8.4084;2.3451;4.6894;8.2874;0.0172;-0.0708;0.0661;0.0072;0.0088;0.0182;53.0;-40.95;-131.9;-56.98;164.07;-28.93;-15.87;5.0;34.045;42.490936;-83.281166;583.87;689.9419180434625;0.0;14.680644;;14 / 24;13006;2018-04-03 08:07:54:671
2.1613;4.5826;8.2989;2.3451;4.6237;8.3242;-0.1073;-0.0723;-0.0226;0.0035;0.0211;0.0185;55.0;-41.01;-132.1;-57.14;164.16;-28.57;-15.8;5.0;34.168;42.490936;-83.281166;583.87;689.9419180434625;0.0;14.680644;;14 / 24;13507;2018-04-03 08:07:55:172
2.2361;4.8327;8.1697;2.3231;4.6689;8.3051;0.13;0.1953;-0.1019;0.0128;0.006;0.0271;55.0;-42.08;-130.78;-57.79;163.52;-27.94;-15.54;5.0;33.696;42.490936;-83.281166;583.87;689.9419180434625;0.0;14.680644;;15 / 24;14006;2018-04-03 08:07:55:671
2.33;4.853;8.1565;2.3206;4.7728;8.2465;0.008;0.2336;-0.1465;0.0127;0.0076;0.0242;55.0;-42.86;-130.38;-58.23;162.35;-29.12;-15.72;5.0;33.618;42.490936;-83.281166;583.87;689.9419180434625;0.0;14.680644;;15 / 24;14506;2018-04-03 08:07:56:171
2.3449;4.6418;8.4215;2.3236;4.8393;8.2069;0.1105;-0.1904;0.2723;0.0079;0.0103;0.0246;46.0;-42.9;-130.67;-58.09;162.35;-29.63;-15.78;5.0;32.964;42.490936;-83.281166;583.87;689.9419180434625;0.0;14.680644;;15 / 24;15006;2018-04-03 08:07:56:671
2.3431;4.6418;8.2624;2.3244;4.7672;8.2487;-0.0728;-0.106;0.025;0.007;0.0101;0.0336;46.0;-43.53;-130.05;-58.36;161.74;-29.09;-15.74;5.0;32.853;42.490936;-83.281166;583.87;689.9419180434625;0.0;14.680644;;15 / 24;15507;2018-04-03 08:07:57:172
2.2516;4.9015;8.406;2.3642;4.7139;8.268;-0.1843;0.1338;0.1161;0.0056;0.0057;0.0416;41.0;-44.02;-129.9;-58.54;162.05;-28.76;-15.86;5.0;34.277;42.490936;-83.281166;583.87;689.9419180434625;0.0;14.680644;;15 / 24;16007;2018-04-03 08:07:57:672
2.2869;5.0582;8.1392;2.3822;4.7641;8.234;-0.0049;0.2337;-0.0378;0.0066;0.0228;0.0337;41.0;-44.98;-129.68;-58.35;161.39;-29.07;-16.14;5.0;34.035;42.490936;-83.281166;583.87;689.9419180434625;0.0;14.680644;;15 / 24;16507;2018-04-03 08:07:58:172
2.2708;5.0995;7.9807;2.3535;4.9954;8.1042;0.0101;0.0885;-0.1131;0.0085;0.0084;0.04;33.0;-45.26;-129.78;-58.68;160.75;-30.62;-16.19;5.0;34.153;42.490936;-83.281166;583.87;689.9419180434625;0.0;14.680644;;15 / 24;17007;2018-04-03 08:07:58:672
2.3665;4.8428;8.266;2.3917;5.0045;8.0874;0.1027;-0.17;0.1647;0.0032;0.0151;0.039;33.0;-45.36;-129.71;-58.91;160.93;-30.68;-16.47;5.0;33.458;42.490936;-83.281166;583.87;689.9419180434625;0.0;14.680644;;15 / 24;17506;2018-04-03 08:07:59:171
2.5681;4.9248;8.0752;2.4369;4.9509;8.1069;0.0683;0.0096;-0.0545;0.0055;0.017;0.0361;33.0;-45.51;-129.81;-59.26;160.63;-30.32;-16.73;5.0;33.795;42.490936;-83.281166;583.87;689.9419180434625;0.0;14.680644;;15 / 24;18007;2018-04-03 08:07:59:672
2.4221;5.0498;8.0058;2.4154;4.9541;8.1113;-0.1371;0.0953;-0.0339;0.0086;0.0168;0.026;33.0;-45.39;-129.47;-59.41;160.98;-30.34;-16.58;5.0;32.982;42.490936;-83.281166;583.87;689.9419180434625;0.0;14.680644;;15 / 24;18507;2018-04-03 08:08:00:172
2.382;4.8703;8.2128;2.3905;4.8857;8.16;0.0649;-0.0355;0.0901;0.0089;0.0238;0.0252;37.0;-45.27;-129.85;-59.46;161.22;-29.88;-16.33;5.0;32.912;42.490936;-83.281166;583.87;689.9419180434625;0.0;14.680644;;15 / 24;19006;2018-04-03 08:08:00:671
2.2995;4.996;8.0393;2.361;4.916;8.1504;-0.0788;0.0281;-0.0593;0.007;0.0171;0.0264;33.0;-45.31;-129.97;-60.06;161.06;-30.09;-16.16;5.0;33.754;42.490936;-83.281166;583.87;689.9419180434625;0.0;14.680644;;15 / 24;19507;2018-04-03 08:08:01:172
2.6351;5.0857;8.0901;2.4138;4.9123;8.1372;0.2138;0.2322;-0.1103;0.0082;0.0035;0.004;52.0;-45.14;-129.87;-59.86;161.36;-30.06;-16.52;5.0;34.137;42.490936;-83.281166;583.87;689.9419180434625;0.0;14.680644;;15 / 24;20006;2018-04-03 08:08:01:671
2.6219;4.9236;8.1045;2.425;4.9659;8.1012;0.17;-0.0058;0.0132;0.0033;0.0018;-0.0094;52.0;-45.22;-130.13;-60.04;161.28;-30.42;-16.66;5.0;34.463;42.490936;-83.281166;583.87;689.9419180434625;0.0;14.680644;;15 / 24;20507;2018-04-03 08:08:02:172
2.3443;4.8817;8.3468;2.449;4.8523;8.1626;-0.1708;0.0914;0.1259;6.0E-4;-0.0136;-0.0205;45.0;-44.95;-130.21;-59.97;161.69;-29.66;-16.7;5.0;34.077;42.490936;-83.281166;583.87;689.9419180434625;0.0;14.680644;;14 / 24;21007;2018-04-03 08:08:02:672
2.3186;4.9972;8.0746;2.4364;4.9067;8.1338;-0.2223;0.1237;0.0175;-0.0045;-0.0085;-0.0435;40.0;-44.69;-130.59;-59.93;161.68;-30.02;-16.68;5.0;33.75;42.490936;-83.281166;583.87;689.9419180434625;0.0;14.680644;;14 / 24;21507;2018-04-03 08:08:03:172
2.5262;5.1258;8.0441;2.3864;5.0141;8.0829;0.1528;0.123;-0.0607;-0.011;-0.0287;-0.0437;55.0;-44.11;-131.62;-59.99;162.01;-30.75;-16.45;5.0;33.515;42.490936;-83.281166;583.87;689.9419180434625;0.0;14.680644;;13 / 24;22007;2018-04-03 08:08:03:672
2.4221;4.9607;7.9561;2.3463;5.0358;8.0812;0.0151;-0.0362;-0.2187;-0.0231;-0.0519;-0.0724;49.0;-43.76;-131.99;-59.96;161.74;-30.9;-16.19;5.0;34.495;42.490936;-83.281166;583.87;689.9419180434625;0.0;14.680644;;13 / 24;22507;2018-04-03 08:08:04:172
2.1649;5.1336;8.0488;2.3437;5.0468;8.0751;-0.2358;0.0647;0.0209;-0.0239;-0.062;-0.0822;47.0;-43.29;-133.03;-59.8;162.56;-30.97;-16.18;5.0;32.766;42.490936;-83.281166;583.87;689.9419180434625;0.0;14.680644;;14 / 24;23007;2018-04-03 08:08:04:672
2.2211;4.8781;8.1362;2.3125;5.0411;8.0876;0.0233;-0.2021;0.0955;-0.0332;-0.0484;-0.0856;47.0;-42.79;-133.81;-59.13;162.5;-30.93;-15.96;5.0;33.171;42.490936;-83.281166;583.87;689.9419180434625;0.0;14.680644;;14 / 24;23507;2018-04-03 08:08:05:172
2.178;5.0331;8.1494;2.2347;4.9148;8.1867;0.0039;0.0633;0.0092;-0.0452;-0.04;-0.1095;47.0;-42.25;-134.58;-59.22;163.2;-30.08;-15.27;5.0;34.189;42.490936;-83.281166;583.87;689.9419180434625;0.0;14.680644;;14 / 24;24007;2018-04-03 08:08:05:672
2.0799;4.8991;8.1942;2.1375;4.9431;8.1955;0.0998;-0.0491;-0.1385;-0.0579;-0.0353;-0.1229;44.0;-41.66;-134.64;-59.34;162.66;-30.27;-14.62;5.0;33.26;42.490936;-83.281166;583.87;689.9419180434625;0.0;14.680644;;14 / 24;24506;2018-04-03 08:08:06:171
1.9537;4.789;8.3354;2.0749;4.8462;8.2692;-0.1302;-0.0474;-0.1335;-0.0356;-0.0776;-0.1124;44.0;-40.39;-136.15;-60.02;164.05;-29.62;-14.09;5.0;32.851;42.490936;-83.281166;583.87;689.9419180434625;0.0;14.680644;;15 / 24;25006;2018-04-03 08:08:06:671
1.6325;4.8165;8.5346;2.0402;4.7672;8.3236;-0.4036;0.0652;0.4041;-0.0563;-0.0625;-0.1229;47.0;-39.86;-136.68;-59.89;164.19;-29.09;-13.77;5.0;34.574;42.490936;-83.281166;583.87;689.9419180434625;0.0;14.680644;;15 / 24;25507;2018-04-03 08:08:07:172
2.19;5.06;8.0925;2.0879;4.751;8.321;0.0726;0.2764;0.0616;-0.0448;-0.0442;-0.0801;47.0;-38.87;-137.46;-60.18;165.08;-28.87;-14.06;5.0;34.539;42.490936;-83.281166;583.87;689.9419180434625;0.0;14.680644;;15 / 24;26007;2018-04-03 08:08:07:672
2.056;5.0378;8.2116;2.1023;4.7227;8.3335;0.0393;0.3227;-0.1621;-0.0314;-0.0507;-0.0568;47.0;-38.45;-137.66;-60.05;165.82;-28.98;-14.09;5.0;33.032;42.490936;-83.281166;583.87;689.9419180434625;0.0;14.680644;;15 / 24;26506;2018-04-03 08:08:08:171
2.2319;4.7692;8.3043;2.1227;4.7927;8.2882;-0.0888;-0.0229;-0.1876;-0.0266;-0.0405;-0.0441;47.0;-37.96;-137.96;-59.74;165.83;-29.07;-14.15;5.0;33.669;42.490936;-83.281166;583.87;689.9419180434625;0.0;14.680644;;15 / 24;27006;2018-04-03 08:08:08:671
2.3216;4.6909;8.1535;2.1878;4.726;8.3096;0.0482;-0.0488;-0.0886;-0.0207;-0.032;-0.0413;47.0;-38.08;-138.35;-59.99;166.33;-28.81;-14.75;5.0;32.17;42.490936;-83.281166;583.87;689.9419180434625;0.0;14.680644;;15 / 24;27507;2018-04-03 08:08:09:172
2.1128;4.6317;8.3689;2.2471;4.636;8.3444;-0.0999;0.0626;0.0679;-0.0233;-0.0285;-0.049;47.0;-37.71;-138.2;-59.87;166.67;-28.33;-15.01;5.0;33.376;42.490936;-83.281166;583.87;689.9419180434625;0.0;14.680644;;16 / 24;28006;2018-04-03 08:08:09:671
2.4227;4.5545;8.2193;2.2614;4.6086;8.3556;-0.0213;-0.1124;0.2255;-0.0238;-0.0246;-0.0506;47.0;-37.08;-138.38;-60.08;167.45;-28.03;-15.14;5.0;33.646;42.490936;-83.281166;583.87;689.9419180434625;0.0;14.680644;;16 / 24;28507;2018-04-03 08:08:10:172
2.1409;4.7292;8.4084;2.249;4.6122;8.357;0.0152;0.1147;0.0233;-0.019;-0.0278;-0.053;47.0;-37.09;-138.64;-60.1;167.63;-27.84;-15.15;5.0;32.789;42.490936;-83.281166;583.87;689.9419180434625;0.0;14.680644;;16 / 24;29007;2018-04-03 08:08:10:672
2.2923;4.6364;8.4221;2.2372;4.6144;8.359;0.0313;0.0326;0.0532;-0.017;-0.0248;-0.0488;47.0;-36.27;-139.35;-60.21;168.05;-28.07;-14.98;5.0;33.094;42.490936;-83.281166;583.87;689.9419180434625;0.0;14.680644;;16 / 24;29507;2018-04-03 08:08:11:172
2.0189;5.0941;8.2044;2.142;4.8059;8.2756;-0.1314;0.3773;-0.0643;-0.0068;-0.019;-0.0335;44.0;-36.09;-139.58;-60.03;167.89;-28.49;-14.76;5.0;32.486;42.490936;-83.281166;583.87;689.9419180434625;0.0;14.680644;;16 / 24;30006;2018-04-03 08:08:11:671
2.4113;4.2775;8.5836;2.1462;4.8058;8.2746;0.158;-0.5567;0.3412;0.0015;-0.006;0.0049;68.0;-35.69;-139.58;-60.35;167.49;-29.34;-14.54;5.0;33.618;42.490936;-83.281166;583.87;689.9419180434625;0.0;14.680644;;16 / 24;30507;2018-04-03 08:08:12:172
2.4341;4.5413;8.5836;2.1779;4.7636;8.2907;0.1612;-0.1857;0.2844;-0.0035;0.0045;0.0054;55.0;-35.98;-139.56;-60.55;167.67;-29.23;-14.62;5.0;45.994;42.490936;-83.281166;583.87;689.9419180434625;0.0;14.680644;;15 / 23;31007;2018-04-03 08:08:12:672
2.3132;4.5425;8.4586;2.2045;4.7084;8.3151;0.0296;-0.1471;0.0741;-0.0018;-0.0014;0.0027;55.0;-36.44;-139.08;-60.12;167.78;-28.69;-14.85;5.0;35.121;42.490936;-83.281166;583.87;689.9419180434625;0.0;14.680644;;15 / 23;31507;2018-04-03 08:08:13:172
2.3551;4.5623;8.4227;2.2624;4.6538;8.3303;0.026;-0.068;0.0093;1.0E-4;-0.0045;-0.0039;49.0;-36.25;-139.43;-60.37;168.12;-28.33;-15.19;5.0;35.849;42.490936;-83.281166;583.87;689.9419180434625;0.0;14.680644;;15 / 23;32007;2018-04-03 08:08:13:672
2.5477;4.4929;8.4706;2.2705;4.621;8.3464;0.1656;-0.0862;0.1081;-8.0E-4;-0.0045;-0.0017;57.0;-36.33;-139.56;-59.87;168.31;-28.11;-15.22;5.0;35.989;42.490936;-83.281166;583.87;689.9419180434625;0.0;14.680644;;15 / 23;32506;2018-04-03 08:08:14:171
2.1236;4.8841;8.0842;2.2762;4.651;8.3281;-0.01;0.209;-0.1528;-0.004;-0.0056;-0.002;42.0;-36.22;-139.8;-59.53;168.3;-28.31;-15.29;5.0;37.702;42.490936;-83.281166;583.87;689.9419180434625;0.0;14.680644;;13 / 19;33006;2018-04-03 08:08:14:671
2.3802;5.0157;8.0088;2.3179;4.7462;8.2627;0.2023;0.2516;-0.2072;-0.012;-0.0232;-0.0251;45.0;-36.04;-140.3;-59.21;168.29;-28.95;-15.67;5.0;39.209;42.490936;-83.281166;583.87;689.9419180434625;0.0;14.680644;;13 / 19;33506;2018-04-03 08:08:15:171
2.7314;4.9565;8.2092;2.4736;4.9004;8.1264;0.2285;0.0604;0.0799;-0.0289;-0.0544;-0.0714;52.0;-35.34;-140.46;-59.49;169.5;-29.98;-16.93;5.0;35.048;42.490936;-83.281166;583.87;689.9419180434625;0.0;14.680644;;13 / 19;34007;2018-04-03 08:08:15:672
2.519;4.9912;8.1517;2.5329;4.91;8.1023;0.154;0.0677;0.0966;-0.047;-0.1109;-0.1689;62.0;-35.0;-140.63;-59.45;169.89;-30.04;-17.36;5.0;33.684;42.490936;-83.281166;583.87;689.9419180434625;0.0;14.680644;;13 / 19;34506;2018-04-03 08:08:16:171
2.7798;4.9834;8.135;2.5092;4.9387;8.0922;0.2808;0.4594;-0.8602;-0.0631;-0.1142;-0.2254;67.0;-32.98;-141.81;-59.95;171.21;-30.24;-17.23;5.0;33.916;42.490936;-83.281166;583.87;689.9419180434625;0.0;14.680644;;13 / 22;35007;2018-04-03 08:08:16:672
2.6805;5.6019;8.0183;2.4677;5.0254;8.0515;0.216;0.5197;-0.5108;-0.0712;-0.1529;-0.2878;57.0;-31.13;-142.61;-60.06;172.26;-30.83;-17.04;5.0;39.485;42.490936;-83.281166;583.87;689.9419180434625;0.0;14.680644;;13 / 22;35507;2018-04-03 08:08:17:172
3.4666;5.0749;7.8227;2.5797;5.0304;8.0131;0.5659;0.0188;-0.746;-0.1151;-0.1892;-0.3524;45.0;-27.48;-142.5;-61.04;175.48;-30.86;-17.85;5.0;41.427;42.490936;-83.281166;583.87;689.9419180434625;0.0;14.680644;;14 / 22;36007;2018-04-03 08:08:17:672
3.6556;5.0187;7.7695;2.615;5.0413;7.9949;0.5037;0.0794;0.1054;-0.1095;-0.1923;-0.3335;40.0;-25.86;-142.38;-61.82;176.44;-30.94;-18.11;5.0;40.573;42.490936;-83.281166;583.87;689.9419180434625;0.0;14.680644;;14 / 22;36506;2018-04-03 08:08:18:171
3.6083;4.4869;7.1043;2.7319;5.0068;7.9774;0.9876;-0.2113;0.7981;-0.0816;-0.1619;-0.2939;40.0;-22.45;-141.78;-63.51;179.95;-30.7;-18.9;5.0;43.003;42.490936;-83.281166;583.87;689.9419180434625;0.0;14.680644;;14 / 23;37007;2018-04-03 08:08:18:672
2.6811;4.8338;8.0548;2.6451;5.0386;7.9866;-0.2618;0.1996;0.3368;-0.0402;-0.1457;-0.1937;40.0;-21.31;-141.26;-64.32;180.12;-30.92;-18.32;5.0;43.813;42.490936;-83.281166;583.87;689.9419180434625;0.0;14.680644;;14 / 23;37507;2018-04-03 08:08:19:172
2.8199;4.7992;6.4965;2.7748;5.0661;7.925;0.3707;-0.4167;0.3025;-0.051;-0.1169;-0.1256;42.0;-19.16;-139.91;-65.37;182.39;-31.1;-19.3;5.0;42.413;42.490936;-83.281166;583.87;689.9419180434625;0.0;14.680644;;14 / 23;38007;2018-04-03 08:08:19:672
3.7884;4.774;8.7476;2.7747;4.863;8.0513;-0.755;-0.0788;-0.0308;-0.0617;-0.1041;-0.0551;38.0;-19.14;-138.7;-66.61;182.57;-29.73;-19.02;5.0;41.65;42.490936;-83.281166;583.87;689.9419180434625;0.0;14.680644;;14 / 23;38507;2018-04-03 08:08:20:172
2.7302;4.8183;9.0012;2.732;4.7244;8.1478;0.6522;0.1817;0.6168;-0.0145;0.0407;-0.0484;56.0;-19.14;-137.82;-68.47;182.37;-28.8;-18.54;5.0;43.785;42.490936;-83.281166;583.87;689.9419180434625;0.0;14.680644;;12 / 21;39007;2018-04-03 08:08:20:672
3.14;3.7786;7.5649;2.7812;4.8505;8.0566;0.0868;-0.8962;-0.817;0.0945;0.0276;-0.0288;53.0;-19.56;-137.86;-67.97;182.21;-29.64;-19.05;5.0;47.094;42.490936;-83.281166;583.87;689.9419180434625;0.0;14.680644;;12 / 21;39506;2018-04-03 08:08:21:171
3.0269;4.7926;10.4207;2.7116;5.159;7.8869;-0.5685;-0.852;-0.8662;-0.0377;0.0957;0.0649;50.0;-19.24;-141.56;-65.79;182.36;-31.74;-18.97;5.0;45.128;42.490936;-83.281166;583.87;689.9419180434625;0.0;14.680644;;16 / 23;40007;2018-04-03 08:08:21:672
2.0398;4.8476;8.4969;2.685;4.9547;8.0257;0.4925;-0.8211;0.1525;0.0039;-0.0035;0.1139;45.0;-19.54;-141.03;-65.88;181.3;-30.35;-18.5;5.0;43.728;42.490936;-83.281166;583.87;689.9419180434625;0.0;14.680644;;16 / 23;40506;2018-04-03 08:08:22:171
2.4377;4.8033;8.126;2.7746;4.8003;8.0888;-0.8425;-0.0985;-1.0909;-0.0281;-0.0185;0.0854;43.0;-20.81;-140.94;-66.18;181.0;-29.31;-18.93;5.0;44.297;42.490936;-83.281166;583.87;689.9419180434625;0.0;14.680644;;15 / 22;41007;2018-04-03 08:08:22:672
2.9904;4.4504;8.7159;2.8316;4.6434;8.1603;-0.146;-0.0249;0.4719;-0.0338;0.0368;0.0408;43.0;-21.51;-140.12;-66.61;180.75;-28.26;-19.14;5.0;44.13;42.490936;-83.281166;583.87;689.9419180434625;0.0;14.680644;;15 / 22;41507;2018-04-03 08:08:23:172
2.8456;4.2171;8.1966;2.8287;4.4665;8.2595;0.01;-0.0655;-0.0325;-0.0513;0.011;0.0298;43.0;-22.54;-139.33;-67.55;180.17;-27.09;-18.91;5.0;43.277;42.490936;-83.281166;583.87;689.9419180434625;0.0;14.680644;;15 / 22;42007;2018-04-03 08:08:23:672
1.8562;2.8077;7.9412;2.7953;4.2908;8.3633;0.2226;-1.1843;0.1695;0.012;0.0106;-0.0109;43.0;-22.36;-138.7;-67.69;180.42;-25.95;-18.48;5.0;40.837;42.490936;-83.281166;583.87;689.9419180434625;0.0;14.680644;;15 / 22;42507;2018-04-03 08:08:24:172
2.2056;2.7318;8.8427;2.8211;4.0905;8.4546;0.0294;-1.1271;0.9246;0.0099;0.0045;-7.0E-4;46.0;-22.21;-139.03;-67.41;180.2;-24.65;-18.45;5.0;40.73;42.490936;-83.281166;583.87;689.9419180434625;0.0;14.680644;;15 / 22;43007;2018-04-03 08:08:24:672
2.8684;3.5525;8.9797;2.8588;4.021;8.4752;0.4987;-0.4652;0.3074;0.0049;-0.0138;0.0132;49.0;-21.91;-138.41;-67.31;180.34;-24.21;-18.64;5.0;37.066;42.490936;-83.281166;583.87;689.9419180434625;0.0;14.680644;;15 / 22;43506;2018-04-03 08:08:25:171
3.07;4.4103;8.2367;2.8276;3.9758;8.507;-0.0236;0.5517;-0.2435;-0.0045;-0.0124;-0.0256;44.0;-22.68;-139.07;-68.03;179.78;-23.92;-18.39;5.0;38.293;42.490936;-83.281166;583.87;689.9419180434625;0.0;14.680644;;15 / 23;44006;2018-04-03 08:08:25:671
3.1417;4.4199;8.2409;2.8553;4.0076;8.4827;0.4831;0.4381;-0.7182;-0.008;-0.0564;-0.0748;40.0;-21.81;-138.94;-67.62;180.49;-24.12;-18.6;5.0;37.318;42.490936;-83.281166;583.87;689.9419180434625;0.0;14.680644;;15 / 23;44506;2018-04-03 08:08:26:171
4.7198;4.253;8.2175;3.0327;4.1226;8.3653;-0.3066;0.6826;-0.0868;-0.0675;-0.1154;-0.1521;36.0;-21.57;-139.25;-68.15;180.92;-24.46;-19.18;5.0;38.011;42.490936;-83.281166;583.87;689.9419180434625;0.0;14.680644;;15 / 23;45007;2018-04-03 08:08:26:672
4.2939;4.9409;7.3675;3.1367;4.3274;8.2223;0.9387;0.8123;-1.057;-0.0112;-0.1884;-0.2169;57.0;-20.02;-138.78;-69.18;183.63;-26.18;-20.88;5.0;42.894;42.490936;-83.281166;583.87;689.9419180434625;0.0;14.680644;;15 / 23;45506;2018-04-03 08:08:27:171
3.2698;6.6339;7.1498;3.1308;4.8624;7.9199;1.1823;0.7807;-1.1403;-0.0792;-0.1988;-0.3642;52.0;-18.9;-138.2;-69.41;185.0;-27.63;-21.66;5.0;46.441;42.490936;-83.281166;583.87;689.9419180434625;0.0;14.680644;;15 / 23;46006;2018-04-03 08:08:27:671
4.8227;5.3328;6.0179;3.3709;5.1469;7.6365;1.2278;0.3777;-1.8155;-0.0269;-0.357;-0.3313;42.0;-17.29;-136.81;-71.43;189.44;-31.66;-23.82;5.0;45.217;42.490936;-83.281166;583.87;689.9419180434625;0.0;14.680644;;15 / 23;46507;2018-04-03 08:08:28:172
4.2048;6.0883;6.9194;3.349;5.5333;7.3714;0.331;0.5197;-0.2524;-0.1095;-0.2189;-0.434;33.0;-17.1;-135.6;-72.51;191.89;-33.28;-25.02;5.0;45.653;42.490936;-83.281166;583.87;689.9419180434625;0.0;14.680644;;16 / 24;47006;2018-04-03 08:08:28:671
4.2394;5.6109;7.477;3.3817;5.5224;7.3646;0.6676;0.1271;-0.2984;-0.1273;-0.1959;-0.318;35.0;-16.56;-130.26;-74.67;193.69;-34.27;-24.66;5.0;44.001;42.490936;-83.281166;583.87;689.9419180434625;0.0;14.680644;;16 / 24;47507;2018-04-03 08:08:29:172
4.0127;5.6355;6.207;3.2505;5.668;7.3129;0.1495;0.0302;-1.2253;-0.0938;-0.1562;-0.2533;35.0;-16.9;-128.3;-75.8;194.44;-34.89;-24.31;5.0;45.135;42.490936;-83.281166;583.87;689.9419180434625;0.0;14.680644;;16 / 22;48006;2018-04-03 08:08:29:671
3.0819;6.8366;6.923;3.136;5.7367;7.3093;0.066;0.925;-0.357;-0.0578;-0.1051;-0.1523;37.0;-17.19;-124.47;-77.37;194.93;-35.8;-23.22;5.0;46.473;42.490936;-83.281166;583.87;689.9419180434625;0.0;14.680644;;16 / 22;48506;2018-04-03 08:08:30:171
3.2817;8.0103;7.1043;3.1373;5.9761;7.1143;-0.3116;1.7222;0.248;0.0;-0.0254;-0.0655;79.0;-17.76;-124.45;-78.11;195.68;-37.19;-23.33;5.0;47.71;42.490936;-83.281166;583.87;689.9419180434625;0.0;14.680644;;14 / 21;49006;2018-04-03 08:08:30:671
2.6393;7.3212;8.0213;3.1488;6.1079;6.9963;-0.1347;1.0846;0.3995;-0.0311;-0.0301;0.009;74.0;-19.39;-124.15;-78.34;197.06;-38.52;-24.23;5.0;47.849;42.490936;-83.281166;583.87;689.9419180434625;0.0;14.680644;;14 / 21;49507;2018-04-03 08:08:31:172
2.775;6.8205;6.6867;3.1311;6.1953;6.9272;-0.3279;0.1625;-0.6597;-0.0037;0.0025;-0.0123;74.0;-19.73;-123.96;-78.2;196.86;-38.9;-24.51;5.0;48.354;42.490936;-83.281166;583.87;689.9419180434625;0.0;14.680644;;16 / 22;50007;2018-04-03 08:08:31:672
2.0405;6.7361;6.5246;3.0569;6.2295;6.9296;-0.8414;0.4726;-0.7354;0.0057;-0.0161;0.008;65.0;-20.24;-123.71;-78.43;196.22;-39.44;-23.8;5.0;49.138;42.490936;-83.281166;583.87;689.9419180434625;0.0;14.680644;;16 / 22;50507;2018-04-03 08:08:32:172
2.7439;5.7467;7.7222;3.0839;6.1149;7.0191;-0.1652;-0.6431;0.4325;-0.0059;0.0133;0.0022;82.0;-20.16;-123.98;-78.06;196.13;-39.5;-23.72;5.0;56.434;42.490936;-83.281166;583.87;689.9419180434625;0.0;14.680644;;14 / 20;51007;2018-04-03 08:08:32:672
2.1338;6.5058;6.5707;3.1029;6.1136;7.0119;-1.1615;0.2769;-0.0189;-0.0189;0.0318;-7.0E-4;87.0;-20.29;-123.18;-78.38;195.88;-38.57;-23.87;5.0;59.074;42.490936;-83.281166;583.87;689.9419180434625;0.0;14.680644;;14 / 20;51507;2018-04-03 08:08:33:172
4.1832;5.7437;7.9256;3.1618;6.0295;7.0582;0.3302;0.1694;-0.0869;-0.0347;0.0392;0.0037;87.0;-20.39;-123.21;-78.78;196.42;-37.94;-24.13;5.0;56.387;42.490936;-83.281166;583.87;689.9419180434625;0.0;14.680644;;14 / 20;52007;2018-04-03 08:08:33:672
1.9148;5.4985;6.5432;3.1024;5.9855;7.1217;-0.4361;-0.3729;-0.233;0.0413;-0.0016;0.0068;87.0;-20.63;-123.23;-78.88;194.34;-37.62;-23.54;5.0;52.428;42.490936;-83.281166;583.87;689.9419180434625;0.0;14.680644;;14 / 20;52506;2018-04-03 08:08:34:171
2.9324;5.4297;8.2798;3.0805;5.9232;7.1831;-0.3321;-0.389;1.0662;-0.0309;-0.0085;0.0295;87.0;-20.65;-123.51;-78.66;194.16;-37.8;-23.49;5.0;56.809;42.490936;-83.281166;583.87;689.9419180434625;0.0;14.680644;;16 / 22;53007;2018-04-03 08:08:34:672
2.8905;5.5272;6.8165;3.1452;5.8707;7.1981;-1.3799;-0.441;-0.8;0.0061;-0.0111;0.0242;87.0;-20.7;-123.53;-79.24;193.66;-36.77;-23.6;5.0;56.278;42.490936;-83.281166;583.87;689.9419180434625;0.0;14.680644;;16 / 22;53507;2018-04-03 08:08:35:172
3.2722;4.7423;8.5161;3.24;5.7144;7.2814;0.5577;-1.0915;0.9452;0.0143;-0.0154;0.0026;87.0;-20.67;-123.67;-78.87;193.53;-35.64;-23.99;5.0;49.243;42.490936;-83.281166;583.87;689.9419180434625;0.0;14.680644;;16 / 22;54007;2018-04-03 08:08:35:672
3.932;4.6801;8.0411;3.2931;5.6273;7.3252;-0.5006;-0.6214;-0.2235;0.0391;-0.0621;0.008;82.0;-21.51;-123.11;-77.98;192.28;-35.02;-24.21;5.0;46.843;42.490936;-83.281166;583.87;689.9419180434625;0.0;14.680644;;16 / 22;54506;2018-04-03 08:08:36:171
3.786;5.1342;9.274;3.2321;5.5391;7.4191;0.1396;-0.4367;1.628;-0.0389;0.0531;-0.012;39.0;-21.78;-123.03;-78.44;191.07;-34.39;-23.54;5.0;47.954;42.490936;-83.281166;583.87;689.9419180434625;0.0;14.680644;;16 / 22;55007;2018-04-03 08:08:36:672
3.5414;4.6765;7.0576;3.257;5.5301;7.4149;0.5459;-0.88;-0.6296;-0.0084;-0.0175;-0.0116;38.0;-21.46;-123.21;-78.67;192.62;-34.33;-23.71;5.0;45.272;42.490936;-83.281166;583.87;689.9419180434625;0.0;14.680644;;16 / 22;55507;2018-04-03 08:08:37:172
3.2004;4.5868;7.5428;3.2768;5.3602;7.53;0.8419;-0.8474;0.8785;0.0781;-0.054;-0.0334;41.0;-21.54;-123.14;-78.77;191.35;-33.63;-23.64;5.0;45.659;42.490936;-83.281166;583.87;689.9419180434625;0.0;14.680644;;14 / 21;56006;2018-04-03 08:08:37:671
4.3047;4.1334;6.469;3.2637;5.3271;7.5592;0.7995;-1.3399;-1.6989;-0.0185;-8.0E-4;-0.0337;41.0;-21.53;-123.01;-79.0;190.96;-33.13;-23.52;5.0;49.964;42.490936;-83.281166;583.87;689.9419180434625;0.0;14.680644;;13 / 21;56507;2018-04-03 08:08:38:172
3.8111;4.4636;6.99;3.3126;5.2367;7.6009;-0.3015;-0.5379;-0.8235;-0.0502;-0.0559;-0.0187;38.0;-21.74;-122.8;-78.44;189.24;-32.78;-22.65;5.0;48.932;42.490936;-83.281166;583.87;689.9419180434625;0.0;14.680644;;13 / 21;57006;2018-04-03 08:08:38:671
2.9856;5.3226;8.0297;3.2952;5.2188;7.6208;0.0616;-0.3178;0.6692;-0.0072;-0.006;-0.066;41.0;-21.76;-121.93;-79.4;190.53;-32.15;-23.38;5.0;45.429;42.490936;-83.281166;583.87;689.9419180434625;0.0;14.680644;;13 / 21;57506;2018-04-03 08:08:39:171
3.9882;5.4811;6.5916;3.3942;5.2065;7.5857;0.6944;0.2787;-0.0885;-0.06;7.0E-4;-0.0498;43.0;-22.2;-121.99;-79.48;191.32;-32.17;-23.99;5.0;45.911;42.490936;-83.281166;583.87;689.9419180434625;0.0;14.680644;;11 / 19;58006;2018-04-03 08:08:39:671
4.0588;5.1886;6.6981;3.3783;5.2545;7.5596;1.1594;0.0626;-0.2796;-0.014;-0.0391;-0.0343;41.0;-22.75;-121.72;-79.07;190.72;-32.4;-24.08;5.0;46.679;42.490936;-83.281166;583.87;689.9419180434625;0.0;14.680644;;11 / 19;58506;2018-04-03 08:08:40:171
3.6293;7.1794;8.3234;3.4664;5.3249;7.47;1.2993;0.629;1.6745;-0.0167;-0.0116;-0.0505;41.0;-23.13;-121.46;-79.27;191.64;-32.63;-24.58;5.0;55.93;42.490936;-83.281166;583.87;689.9419180434625;0.0;14.680644;;12 / 18;59006;2018-04-03 08:08:40:671
3.1543;5.0839;6.6353;3.5403;5.2748;7.4708;-0.493;-0.1153;-1.2848;-0.0028;-0.0274;-0.0495;46.0;-23.76;-121.0;-79.1;191.81;-32.54;-25.36;5.0;47.597;42.490936;-83.281166;583.87;689.9419180434625;0.0;14.680644;;12 / 18;59507;2018-04-03 08:08:41:172
2.9886;5.1826;6.5725;3.5188;5.3401;7.4345;0.6207;0.1624;-0.5813;-0.0076;-0.0554;-0.0355;41.0;-23.99;-120.71;-79.38;191.56;-32.77;-25.09;5.0;48.037;42.490936;-83.281166;583.87;689.9419180434625;0.0;14.680644;;15 / 20;60007;2018-04-03 08:08:41:672
3.5264;5.2352;7.2754;3.5228;5.2776;7.4771;0.0924;0.1139;-0.1733;-0.0115;-0.0148;-0.0623;43.0;-23.95;-120.53;-79.96;192.15;-32.56;-25.23;5.0;45.953;42.490936;-83.281166;583.87;689.9419180434625;0.0;14.680644;;15 / 20;60506;2018-04-03 08:08:42:171
3.606;5.4482;7.1456;3.5226;5.3412;7.4319;0.0375;-0.0477;0.7283;-0.0327;-0.0313;-0.0768;38.0;-24.14;-120.11;-79.52;192.82;-32.75;-25.52;5.0;45.725;42.490936;-83.281166;583.87;689.9419180434625;0.0;14.680644;;14 / 20;61006;2018-04-03 08:08:42:671
5.3868;3.5381;9.5366;3.6491;5.3068;7.3954;2.2458;0.3592;-0.4387;0.0473;-0.0779;-0.0647;38.0;-25.16;-119.5;-78.86;192.49;-32.76;-26.26;5.0;56.761;42.490936;-83.281166;583.87;689.9419180434625;0.0;14.680644;;14 / 20;61507;2018-04-03 08:08:43:172
4.2065;5.4644;7.4865;3.7368;5.3319;7.3333;0.2588;0.3423;0.2277;-0.0435;-0.0247;-0.0762;41.0;-25.48;-119.3;-79.73;194.34;-32.94;-27.0;5.0;49.63;42.490936;-83.281166;583.87;689.9419180434625;0.0;14.680644;;14 / 20;62006;2018-04-03 08:08:43:671
3.6688;5.4386;7.6325;3.7658;5.3307;7.3194;1.4656;0.0315;0.42;-0.0042;-0.0139;-0.0334;44.0;-25.85;-119.01;-79.94;193.83;-32.93;-27.23;5.0;49.614;42.490936;-83.281166;583.87;689.9419180434625;0.0;14.680644;;14 / 20;62506;2018-04-03 08:08:44:171
3.9768;5.6097;7.4836;3.7171;5.3584;7.324;-0.571;0.1245;-0.427;-0.0129;-0.0216;-0.0255;49.0;-26.24;-118.49;-80.11;193.7;-33.12;-26.91;5.0;46.411;42.490936;-83.281166;583.87;689.9419180434625;0.0;14.680644;;13 / 20;63006;2018-04-03 08:08:44:671
5.0548;5.9854;9.1783;3.6845;5.3587;7.3403;0.3491;1.1122;-1.2482;0.0266;0.0024;-0.0343;49.0;-26.69;-118.78;-80.02;192.66;-33.12;-26.91;5.0;52.51;42.490936;-83.281166;583.87;689.9419180434625;0.0;14.680644;;13 / 20;63507;2018-04-03 08:08:45:172
4.337;5.5326;8.3109;3.7214;5.3868;7.301;0.2323;0.0014;-0.0427;-0.0057;-0.0495;-0.0343;49.0;-26.38;-118.23;-80.31;193.01;-33.01;-26.47;5.0;45.662;42.490936;-83.281166;583.87;689.9419180434625;0.0;14.680644;;13 / 19;64006;2018-04-03 08:08:45:671
4.0869;5.1515;6.2907;3.7732;5.3786;7.2804;0.4438;-0.3037;2.3799;0.0275;-0.027;-0.0548;49.0;-26.74;-118.6;-80.24;192.91;-33.32;-27.01;5.0;47.461;42.490936;-83.281166;583.87;689.9419180434625;0.0;14.680644;;13 / 19;64506;2018-04-03 08:08:46:171
3.8668;5.0253;7.121;3.8952;5.3442;7.2414;0.1162;-0.1885;0.2214;-0.059;-0.0449;-0.0198;48.0;-28.36;-117.6;-79.51;193.95;-33.02;-28.28;5.0;46.231;42.490936;-83.281166;583.87;689.9419180434625;0.0;14.680644;;15 / 21;65007;2018-04-03 08:08:46:672
4.1467;5.453;7.657;3.8566;5.3872;7.2301;-0.1842;0.1403;0.8466;-0.0874;-0.0352;-0.0107;48.0;-28.44;-118.03;-79.35;193.35;-33.02;-28.28;5.0;46.778;42.490936;-83.281166;583.87;689.9419180434625;0.0;14.680644;;15 / 21;65507;2018-04-03 08:08:47:172
3.6825;5.6803;8.4502;3.7766;5.3572;7.2944;0.2362;0.8099;1.7031;0.0314;0.0139;-0.0657;48.0;-28.89;-117.45;-79.48;191.4;-33.11;-27.37;5.0;47.025;42.490936;-83.281166;583.87;689.9419180434625;0.0;14.680644;;17 / 23;66006;2018-04-03 08:08:47:671
3.5473;5.7701;8.5513;3.8302;5.3568;7.2667;0.7982;0.1632;-0.1737;0.0063;-0.047;-0.0335;51.0;-29.14;-117.25;-79.42;192.04;-33.11;-27.79;5.0;52.346;42.490936;-83.281166;583.87;689.9419180434625;0.0;14.680644;;17 / 23;66507;2018-04-03 08:08:48:172
3.7238;4.8632;6.7848;3.8406;5.318;7.2897;0.3288;-0.0853;0.3242;-0.0407;-0.0053;-0.0301;51.0;-29.17;-116.81;-79.96;192.47;-32.84;-27.78;5.0;46.883;42.490936;-83.281166;583.87;689.9419180434625;0.0;14.680644;;13 / 18;67007;2018-04-03 08:08:48:672
3.9577;5.0815;8.1153;3.7447;5.2995;7.3527;0.3975;0.2447;0.7239;0.0523;-0.0499;-0.0303;56.0;-29.31;-116.8;-79.46;190.64;-32.71;-26.99;5.0;46.008;42.490936;-83.281166;583.87;689.9419180434625;0.0;14.680644;;13 / 18;67506;2018-04-03 08:08:49:171
3.043;5.5003;7.6104;3.8322;5.2582;7.3373;0.6281;0.0167;-0.2305;-0.0374;-0.0402;-0.0019;51.0;-30.26;-116.04;-79.37;190.68;-32.42;-27.58;5.0;52.879;42.490936;-83.281166;583.87;689.9419180434625;0.0;14.680644;;16 / 22;68006;2018-04-03 08:08:49:671
4.1192;5.1024;7.8329;3.815;5.2379;7.3608;0.119;-0.03;0.6558;0.0127;2.0E-4;-0.0438;51.0;-30.16;-115.97;-79.6;190.92;-32.28;-27.4;5.0;45.886;42.490936;-83.281166;583.87;689.9419180434625;0.0;14.680644;;16 / 22;68506;2018-04-03 08:08:50:171
2.845;5.3812;6.9464;3.7191;5.1908;7.4427;0.8014;-0.1913;0.981;-0.0092;-0.0178;-0.0147;56.0;-30.28;-116.03;-79.47;189.45;-32.44;-26.77;5.0;47.427;42.490936;-83.281166;583.87;689.9419180434625;0.0;14.680644;;15 / 21;69007;2018-04-03 08:08:50:672
4.1084;3.6715;5.2391;3.8142;5.1422;7.4284;-0.049;-1.4809;-1.5836;-0.116;0.0016;0.0038;56.0;-30.83;-115.9;-79.38;188.87;-31.62;-27.18;5.0;47.81;42.490936;-83.281166;583.87;689.9419180434625;0.0;14.680644;;15 / 21;69507;2018-04-03 08:08:51:172
4.0911;4.5653;7.7079;3.6991;5.1262;7.4973;0.1918;-0.4164;-0.8825;-0.0313;-0.0397;-0.0239;56.0;-30.37;-115.5;-79.54;188.38;-31.97;-25.83;5.0;49.047;42.490936;-83.281166;583.87;689.9419180434625;0.0;14.680644;;15 / 21;70007;2018-04-03 08:08:51:672
4.106;4.6574;7.1156;3.7117;5.0991;7.5095;0.7329;0.0785;0.2468;0.0315;-0.0517;-0.0403;56.0;-30.74;-115.15;-79.32;187.57;-31.33;-26.3;5.0;53.106;42.490936;-83.281166;583.87;689.9419180434625;0.0;14.680644;;15 / 21;70507;2018-04-03 08:08:52:172
4.1856;5.6229;8.6853;3.796;5.1388;7.44;0.1931;0.1911;0.2282;0.0291;-0.051;-0.0255;56.0;-31.73;-115.48;-79.14;187.88;-31.6;-27.03;5.0;53.322;42.490936;-83.281166;583.87;689.9419180434625;0.0;14.680644;;15 / 21;71007;2018-04-03 08:08:52:672
3.5013;5.8646;7.7707;3.8128;5.1662;7.4124;0.2043;-0.148;-0.5466;-0.008;-0.0574;-0.0206;54.0;-31.54;-115.33;-79.33;188.24;-31.79;-27.22;5.0;52.326;42.490936;-83.281166;583.87;689.9419180434625;0.0;14.680644;;15 / 21;71506;2018-04-03 08:08:53:171
4.1898;4.9768;6.7214;3.7254;5.1648;7.4576;0.2846;-0.3754;0.5773;-0.0391;-0.0485;-0.0017;54.0;-32.05;-115.66;-79.32;187.4;-32.01;-26.71;5.0;51.998;42.490936;-83.281166;583.87;689.9419180434625;0.0;14.680644;;14 / 20;72006;2018-04-03 08:08:53:671
3.8955;5.7677;8.7434;3.7777;5.1971;7.4087;0.6352;-0.6777;-0.6854;0.0094;-0.0316;-0.0165;54.0;-31.99;-115.01;-78.96;188.0;-32.0;-27.02;5.0;48.693;42.490936;-83.281166;583.87;689.9419180434625;0.0;14.680644;;14 / 20;72506;2018-04-03 08:08:54:171
3.5814;5.0821;7.6941;3.7082;5.2045;7.4386;0.3797;0.3457;1.092;-0.0089;-0.0068;-0.0322;54.0;-32.49;-115.21;-78.54;187.19;-32.05;-26.5;5.0;48.838;42.490936;-83.281166;583.87;689.9419180434625;0.0;14.680644;;14 / 20;73007;2018-04-03 08:08:54:672
3.9703;5.2329;8.4042;3.7483;5.1798;7.4357;-0.5453;-0.1724;-1.4665;-0.0042;-0.0391;-0.0176;54.0;-32.59;-115.03;-78.67;186.62;-31.88;-26.75;5.0;49.324;42.490936;-83.281166;583.87;689.9419180434625;0.0;14.680644;;14 / 20;73507;2018-04-03 08:08:55:172
4.849;5.0271;9.1747;3.8369;5.191;7.3826;0.7466;-0.7058;1.1961;-0.0905;-0.0188;-0.031;54.0;-33.75;-115.07;-78.19;186.29;-31.96;-27.46;5.0;46.289;42.490936;-83.281166;583.87;689.9419180434625;0.0;14.680644;;15 / 21;74007;2018-04-03 08:08:55:672
5.8797;4.707;7.1731;3.8509;5.1757;7.386;0.9918;0.3349;-0.1749;-0.0087;-0.009;-0.0554;54.0;-33.84;-115.39;-78.43;186.38;-31.86;-27.54;5.0;48.326;42.490936;-83.281166;583.87;689.9419180434625;0.0;14.680644;;15 / 21;74507;2018-04-03 08:08:56:172
4.5721;5.8197;7.2096;3.9256;5.1497;7.3648;1.0933;-0.3534;0.6432;-0.0182;-0.0594;-0.0263;54.0;-34.4;-115.1;-78.44;187.15;-31.68;-28.06;5.0;46.95;42.490936;-83.281166;583.87;689.9419180434625;0.0;14.680644;;16 / 21;75006;2018-04-03 08:08:56:671
3.3003;4.9601;6.1723;3.8886;5.058;7.4476;0.103;0.653;0.9867;-0.0095;0.0917;-0.1209;54.0;-34.66;-114.76;-78.22;185.32;-31.05;-27.57;5.0;46.514;42.490936;-83.281166;583.87;689.9419180434625;0.0;14.680644;;16 / 21;75506;2018-04-03 08:08:57:171
4.3806;5.0659;7.7797;3.857;5.1948;7.3694;-0.4348;-0.2798;-1.4178;-0.0639;-0.051;-0.0152;54.0;-35.18;-115.75;-78.17;185.54;-31.99;-27.63;5.0;46.716;42.490936;-83.281166;583.87;689.9419180434625;0.0;14.680644;;14 / 19;76007;2018-04-03 08:08:57:672
3.7047;5.3818;8.5968;3.8263;5.1542;7.4137;-0.6765;-0.168;-0.0663;-0.0344;-0.0309;-0.0126;56.0;-35.64;-115.61;-77.93;184.04;-31.71;-27.3;5.0;47.03;42.490936;-83.281166;583.87;689.9419180434625;0.0;14.680644;;14 / 19;76506;2018-04-03 08:08:58:171
2.726;5.0384;8.464;3.6452;5.1407;7.5137;-0.8652;-0.0284;-0.0543;0.0414;0.0111;-0.0238;66.0;-35.3;-114.75;-77.69;182.75;-31.61;-25.88;5.0;51.474;42.490936;-83.281166;583.87;689.9419180434625;0.0;14.680644;;16 / 20;77007;2018-04-03 08:08:58:672
3.1884;5.0432;9.2273;3.6842;5.1648;7.4781;-0.9992;0.679;-0.0392;0.0336;-0.0191;0.0194;66.0;-35.41;-114.89;-78.14;183.34;-31.78;-26.23;5.0;49.733;42.490936;-83.281166;583.87;689.9419180434625;0.0;14.680644;;16 / 20;77506;2018-04-03 08:08:59:171
3.4319;5.3423;8.738;3.7477;5.0477;7.5264;-0.9112;0.1769;0.1396;0.0141;0.0391;-0.0048;66.0;-36.22;-114.38;-77.66;182.72;-30.98;-26.47;5.0;47.246;42.490936;-83.281166;583.87;689.9419180434625;0.0;14.680644;;16 / 22;78006;2018-04-03 08:08:59:671
2.3144;3.8701;7.3753;3.6547;5.1066;7.5324;-1.0788;-0.3129;1.4107;0.0109;0.0111;-0.0022;66.0;-35.32;-114.67;-77.71;183.6;-30.98;-26.47;5.0;53.278;42.490936;-83.281166;583.87;689.9419180434625;0.0;14.680644;;16 / 22;78507;2018-04-03 08:09:00:172
2.3282;5.4973;8.2678;3.5346;4.9875;7.6682;0.1726;-0.4143;-0.5134;-0.0139;-0.0204;0.0127;66.0;-35.57;-114.6;-77.56;180.43;-31.07;-25.05;5.0;46.986;42.490936;-83.281166;583.87;689.9419180434625;0.0;14.680644;;15 / 20;79007;2018-04-03 08:09:00:672
4.3346;4.4193;8.1607;3.5483;5.0131;7.6452;-0.8715;-0.0031;-0.2765;0.0214;-0.017;-0.0107;53.0;-35.89;-114.63;-77.53;180.19;-30.74;-24.9;5.0;47.922;42.490936;-83.281166;583.87;689.9419180434625;0.0;14.680644;;15 / 20;79507;2018-04-03 08:09:01:172
3.4163;4.7381;8.4126;3.5535;4.9602;7.6772;1.5329;-0.1135;2.9033;-0.0252;0.0295;-0.0066;53.0;-35.82;-114.43;-77.53;180.44;-30.58;-25.05;5.0;48.556;42.490936;-83.281166;583.87;689.9419180434625;0.0;14.680644;;15 / 20;80007;2018-04-03 08:09:01:672
1.8765;5.6349;7.9442;3.4251;4.9584;7.7365;0.3532;0.1851;-0.3624;0.036;0.0086;-0.0044;53.0;-34.71;-114.68;-78.12;179.56;-30.37;-23.88;5.0;53.851;42.490936;-83.281166;583.87;689.9419180434625;0.0;14.680644;;15 / 20;80507;2018-04-03 08:09:02:172
2.9946;5.7455;6.3769;3.3435;5.0122;7.7375;-0.3933;0.4478;-1.5737;0.0401;0.0022;-0.0092;66.0;-35.16;-114.81;-77.57;179.32;-30.4;-23.72;5.0;52.765;42.490936;-83.281166;583.87;689.9419180434625;0.0;14.680644;;17 / 21;81006;2018-04-03 08:09:02:671
2.9581;4.6951;7.8161;3.3115;4.9826;7.7703;-0.1885;-0.0175;0.2294;0.078;-0.0327;-0.0069;61.0;-35.38;-114.58;-78.03;178.33;-30.54;-23.08;5.0;50.075;42.490936;-83.281166;583.87;689.9419180434625;0.0;14.680644;;17 / 21;81506;2018-04-03 08:09:03:171
2.9007;4.8524;7.9783;3.4023;4.9871;7.7281;0.7933;0.6201;-0.2689;-0.0713;0.0071;0.0258;61.0;-35.78;-114.61;-77.51;178.02;-30.98;-23.52;5.0;51.541;42.490936;-83.281166;583.87;689.9419180434625;0.0;14.680644;;14 / 21;82007;2018-04-03 08:09:03:672
3.5587;4.8793;8.324;3.4311;5.0156;7.6968;-0.0632;0.1423;-0.4993;0.0061;-0.0137;0.0122;61.0;-36.39;-114.5;-77.54;178.83;-30.76;-24.03;5.0;45.196;42.490936;-83.281166;583.87;689.9419180434625;0.0;14.680644;;14 / 21;82507;2018-04-03 08:09:04:172
3.259;5.4123;8.1272;3.4279;5.0105;7.7016;-0.6291;-0.5116;-0.3394;0.0715;-0.0076;-0.0061;61.0;-36.37;-114.08;-77.63;178.76;-30.73;-23.99;5.0;46.492;42.490936;-83.281166;583.87;689.9419180434625;0.0;14.680644;;14 / 19;83007;2018-04-03 08:09:04:672
2.397;4.393;7.9615;3.4221;5.0207;7.6975;0.9999;-0.5462;0.0494;-0.0049;-0.0107;0.0096;61.0;-36.34;-114.33;-77.43;178.3;-30.8;-23.97;5.0;46.792;42.490936;-83.281166;583.87;689.9419180434625;0.0;14.680644;;14 / 19;83507;2018-04-03 08:09:05:172
3.2171;5.0002;7.063;3.5467;4.9123;7.7111;-0.0366;-0.3548;0.4215;0.0181;0.001;-0.0084;61.0;-36.43;-114.38;-77.6;179.88;-30.06;-24.7;5.0;45.842;42.490936;-83.281166;583.87;689.9419180434625;0.0;14.680644;;16 / 22;84007;2018-04-03 08:09:05:672
3.311;4.7663;7.916;3.5135;4.8606;7.7589;-1.0185;-0.6693;-0.1726;-0.1013;-0.036;0.0458;66.0;-36.63;-113.97;-77.47;178.04;-29.71;-24.36;5.0;50.163;42.490936;-83.281166;583.87;689.9419180434625;0.0;14.680644;;16 / 22;84506;2018-04-03 08:09:06:171
3.174;4.7435;9.3039;3.389;4.7971;7.8532;0.1775;-0.1351;-0.3928;0.0059;0.0826;-0.0456;66.0;-36.74;-113.75;-77.42;178.56;-28.9;-24.68;5.0;47.005;42.490936;-83.281166;583.87;689.9419180434625;0.0;14.680644;;16 / 22;85006;2018-04-03 08:09:06:671
2.9838;4.9714;6.5049;3.3708;4.8594;7.8227;-0.0681;0.2641;2.0847;-0.0735;-0.0221;0.0355;66.0;-36.18;-113.85;-77.9;177.86;-29.29;-23.34;5.0;48.475;42.490936;-83.281166;583.87;689.9419180434625;0.0;14.680644;;16 / 22;85507;2018-04-03 08:09:07:172
2.5782;4.5324;9.2794;3.4419;4.7558;7.8553;-0.3381;-0.6577;1.1532;-0.0711;0.0174;0.0167;66.0;-36.5;-114.5;-77.62;177.48;-29.01;-23.66;5.0;48.713;42.490936;-83.281166;583.87;689.9419180434625;0.0;14.680644;;14 / 21;86006;2018-04-03 08:09:07:671
3.7735;4.9577;8.3545;3.4368;4.7593;7.8554;0.3351;0.0558;0.9568;0.0126;0.0113;-0.0142;66.0;-36.21;-114.37;-77.44;177.92;-29.03;-23.63;5.0;45.638;42.490936;-83.281166;583.87;689.9419180434625;0.0;14.680644;;14 / 21;86507;2018-04-03 08:09:08:172
3.2823;4.6873;7.2311;3.3863;4.7164;7.9031;-0.0728;0.0704;-0.5482;-0.0019;-0.009;0.0169;66.0;-36.38;-114.4;-77.26;177.32;-28.75;-23.19;5.0;44.413;42.490936;-83.281166;583.87;689.9419180434625;0.0;14.680644;;16 / 22;87006;2018-04-03 08:09:08:671
3.4103;4.7633;8.2953;3.3928;4.718;7.8994;-0.0272;0.1407;0.6776;-0.0407;0.0091;0.0057;66.0;-36.29;-114.21;-77.29;177.39;-28.76;-23.24;5.0;43.84;42.490936;-83.281166;583.87;689.9419180434625;0.0;14.680644;;16 / 22;87506;2018-04-03 08:09:09:171
3.1364;4.6041;8.2905;3.3643;4.6772;7.9358;-0.5401;0.048;-0.4203;-0.0101;0.0054;0.0099;66.0;-36.71;-114.21;-77.51;176.79;-28.72;-23.2;5.0;44.38;42.490936;-83.281166;583.87;689.9419180434625;0.0;14.680644;;15 / 21;88006;2018-04-03 08:09:09:671
3.0335;4.9762;7.0726;3.4023;4.6583;7.9306;-0.008;-0.263;0.3318;0.0068;-0.0167;0.0075;66.0;-36.73;-113.9;-77.46;176.14;-28.49;-22.97;5.0;41.858;42.490936;-83.281166;583.87;689.9419180434625;0.0;14.680644;;15 / 21;88506;2018-04-03 08:09:10:171
-0.362;5.4686;4.1677;3.2957;4.6056;8.0061;1.147;-1.0752;2.0838;-0.0051;-0.0276;0.0125;66.0;-36.16;-114.16;-77.33;176.25;-28.01;-22.37;5.0;50.319;42.490936;-83.281166;583.87;689.9419180434625;0.0;14.680644;;16 / 21;89007;2018-04-03 08:09:10:672
3.2961;4.5736;8.4664;3.2518;4.646;8.0007;-0.4304;-0.061;1.0987;-0.036;-0.0058;0.0146;66.0;-35.89;-113.96;-77.82;176.19;-28.28;-22.12;5.0;44.674;42.490936;-83.281166;583.87;689.9419180434625;0.0;14.680644;;16 / 21;89506;2018-04-03 08:09:11:171
3.2111;4.3152;7.6774;3.2049;4.6088;8.041;0.8382;0.3418;0.4339;0.014;-0.0335;0.0165;66.0;-35.84;-113.75;-77.84;176.11;-28.16;-22.06;5.0;43.811;42.490936;-83.281166;583.87;689.9419180434625;0.0;14.680644;;16 / 22;90007;2018-04-03 08:09:11:672
3.2476;4.235;9.344;3.1235;4.6377;8.0564;0.3502;0.1821;0.0517;0.0231;0.0164;-0.0077;66.0;-36.25;-113.14;-78.36;174.8;-28.22;-21.19;5.0;54.066;42.490936;-83.281166;583.87;689.9419180434625;0.0;14.680644;;16 / 22;90507;2018-04-03 08:09:12:172
0.5354;3.6685;6.9745;3.1559;4.517;8.1122;0.2726;-0.9506;1.3699;0.0295;-0.0501;0.0138;66.0;-35.88;-113.04;-78.54;175.04;-27.91;-21.1;5.0;51.864;42.490936;-83.281166;583.87;689.9419180434625;0.0;14.680644;;15 / 21;91007;2018-04-03 08:09:12:672
3.6012;3.9635;11.5202;3.1228;4.3932;8.1926;-1.4256;-0.9445;1.4925;-0.0447;0.0206;0.0058;66.0;-35.75;-112.7;-78.71;174.95;-26.61;-20.87;5.0;58.906;42.490936;-83.281166;583.87;689.9419180434625;0.0;14.680644;;15 / 21;91506;2018-04-03 08:09:13:171
2.5525;4.634;10.1713;3.0495;4.2707;8.2844;-2.2859;-0.0625;1.0648;-0.0413;0.0757;-0.0496;66.0;-35.98;-112.65;-78.78;175.91;-26.46;-21.55;5.0;58.277;42.490936;-83.281166;583.87;689.9419180434625;0.0;14.680644;;16 / 22;92007;2018-04-03 08:09:13:672
2.3162;3.9778;7.8227;3.0456;4.3442;8.2476;-0.3876;0.2518;-0.2093;0.0138;-0.0231;-0.0092;61.0;-35.62;-112.91;-78.57;174.19;-26.29;-20.27;5.0;55.714;42.490936;-83.281166;583.87;689.9419180434625;0.0;14.680644;;16 / 22;92506;2018-04-03 08:09:14:171
7.6355;6.1541;11.199;3.0293;4.3588;8.2459;1.9361;1.0587;1.6389;0.1017;-0.1989;0.0337;61.0;-35.51;-113.21;-78.56;173.8;-26.12;-19.95;5.0;55.466;42.490936;-83.281166;583.87;689.9419180434625;0.0;14.680644;;14 / 20;93006;2018-04-03 08:09:14:671
4.4016;3.9019;8.1823;3.2094;4.2839;8.217;-0.1542;0.1631;-0.3849;-0.043;0.0119;-0.0155;66.0;-36.33;-113.43;-78.22;175.41;-25.9;-21.34;5.0;52.802;42.490936;-83.281166;583.87;689.9419180434625;0.0;14.680644;;14 / 20;93507;2018-04-03 08:09:15:172
3.3888;4.3314;9.2315;3.1763;4.3051;8.2187;-0.7934;0.2276;1.0397;-0.0186;0.0074;3.0E-4;66.0;-36.32;-112.89;-77.95;175.2;-25.89;-21.18;5.0;47.097;42.495647;-83.28436;561.29;NaN;39.13;14.680644;0.6;16 / 22;94007;2018-04-03 08:09:15:672
2.467;4.1274;8.6423;3.2187;4.249;8.2314;0.4974;-0.63;-0.681;0.0166;0.011;-0.0163;71.0;-36.68;-113.02;-77.83;174.64;-25.68;-21.36;5.0;46.103;42.495647;-83.28436;561.29;NaN;39.13;14.680644;0.6;16 / 22;94507;2018-04-03 08:09:16:172
1.9029;4.524;8.8445;3.1736;4.2471;8.2499;0.006;0.1418;0.3166;0.0322;-0.0393;6.0E-4;71.0;-36.31;-112.8;-78.17;175.08;-25.76;-21.07;5.0;46.587;42.495647;-83.28436;561.29;NaN;39.13;14.680644;0.6;16 / 22;95007;2018-04-03 08:09:16:672
4.2287;4.4019;9.5826;3.2037;4.2279;8.2481;-0.4804;0.6578;0.9194;-0.0166;0.0054;-0.0058;71.0;-36.44;-113.05;-78.12;175.32;-25.54;-21.23;5.0;46.796;42.495647;-83.28436;561.29;NaN;39.13;14.680644;0.6;16 / 22;95506;2018-04-03 08:09:17:171
2.5956;4.603;7.8927;3.0844;4.2353;8.2897;-0.0729;0.2286;-0.8116;0.0124;-0.0222;0.0158;71.0;-36.33;-113.18;-78.25;174.98;-25.71;-20.99;5.0;46.951;42.495647;-83.28436;561.29;NaN;39.13;14.680644;0.6;16 / 21;96006;2018-04-03 08:09:17:671
3.1071;4.5593;9.2805;3.061;4.2032;8.3147;-1.2186;-0.2424;0.2311;0.0203;-0.0119;0.0087;71.0;-35.81;-113.09;-78.79;174.3;-25.38;-20.21;5.0;45.101;42.495647;-83.28436;561.29;NaN;39.13;14.680644;0.6;16 / 21;96507;2018-04-03 08:09:18:172
1.8371;3.6488;6.85;3.0036;4.1188;8.3776;-0.6797;0.2179;0.6629;0.0139;-0.0058;0.0471;71.0;-36.01;-112.85;-78.83;174.22;-25.07;-20.11;5.0;43.86;42.495647;-83.28436;561.29;NaN;39.13;14.680644;0.6;15 / 21;97006;2018-04-03 08:09:18:671
2.2438;4.6981;8.5478;2.9609;4.1268;8.3889;-0.2832;0.0111;1.3735;0.0047;0.0282;0.0173;71.0;-35.86;-112.48;-78.53;173.31;-24.89;-19.44;5.0;45.614;42.495647;-83.28436;561.29;NaN;39.13;14.680644;0.6;15 / 21;97507;2018-04-03 08:09:19:172
1.5308;4.2727;7.7958;2.9055;4.216;8.3639;-0.9469;-0.3512;-0.59;0.0131;0.0188;0.0947;71.0;-35.26;-112.85;-78.81;173.73;-25.46;-19.16;5.0;42.852;42.495647;-83.28436;561.29;NaN;39.13;14.680644;0.6;15 / 21;98006;2018-04-03 08:09:19:671
1.3549;3.8606;7.7324;2.8379;4.121;8.4341;-1.0881;0.0984;0.807;0.0392;0.0708;0.1029;76.0;-34.87;-112.76;-78.82;173.15;-24.85;-18.6;5.0;43.455;42.495647;-83.28436;561.29;NaN;39.13;14.680644;0.6;15 / 21;98507;2018-04-03 08:09:20:172
1.7066;3.9473;8.6375;2.6251;4.1932;8.4674;-0.4682;-0.3685;-0.5624;0.0414;0.0598;0.1323;71.0;-33.7;-113.03;-79.71;172.32;-25.31;-17.22;5.0;42.559;42.495647;-83.28436;561.29;NaN;39.13;14.680644;0.6;14 / 20;99007;2018-04-03 08:09:20:672
1.5786;4.3314;8.0877;2.6182;4.1804;8.4758;-0.4437;-0.3738;-1.1129;0.0513;0.056;0.1245;71.0;-33.04;-113.45;-80.04;173.16;-25.31;-17.22;5.0;43.434;42.495647;-83.28436;561.29;NaN;39.13;14.680644;0.6;14 / 20;99507;2018-04-03 08:09:21:172
2.5675;4.4301;8.4676;2.5789;4.2398;8.4583;-0.3541;-0.1317;-0.3804;0.0911;0.0576;0.1233;66.0;-31.67;-113.23;-80.04;173.59;-25.62;-16.96;5.0;42.042;42.495647;-83.28436;561.29;NaN;39.13;14.680644;0.6;14 / 19;100007;2018-04-03 08:09:21:672
1.4919;4.1932;8.007;2.5014;4.2683;8.4673;-0.5848;0.0689;0.2273;0.0488;0.0919;0.1447;71.0;-30.84;-113.83;-80.59;174.04;-25.8;-16.46;5.0;41.507;42.495647;-83.28436;561.29;NaN;39.13;14.680644;0.6;14 / 19;100506;2018-04-03 08:09:22:171
1.8143;4.0221;8.6494;2.4248;4.3565;8.4446;0.3771;-0.4951;0.007;0.0915;0.0401;0.1704;71.0;-29.42;-114.37;-80.72;175.49;-25.88;-16.28;5.0;40.33;42.495647;-83.28436;561.29;NaN;39.13;14.680644;0.6;15 / 20;101006;2018-04-03 08:09:22:671
2.6069;4.0263;7.9268;2.4168;4.3902;8.4294;-0.0063;-0.307;0.5177;0.0612;0.0742;0.1518;71.0;-27.59;-115.6;-80.98;176.04;-26.37;-16.02;5.0;41.472;42.495647;-83.28436;561.29;NaN;39.13;14.680644;0.6;15 / 20;101507;2018-04-03 08:09:23:172
2.9007;4.7483;8.2989;2.4936;4.5353;8.3296;0.2408;-0.0318;0.6236;0.0726;0.0829;0.138;71.0;-26.39;-116.83;-80.07;177.6;-27.06;-16.12;5.0;40.46;42.495647;-83.28436;561.29;NaN;39.13;14.680644;0.6;15 / 20;102006;2018-04-03 08:09:23:671
2.6291;4.4887;8.5938;2.4692;4.5791;8.3129;0.0508;-0.0462;-0.5792;0.0745;0.0827;0.1249;71.0;-25.53;-117.44;-79.84;178.09;-27.84;-16.54;5.0;40.58;42.495647;-83.28436;561.29;NaN;39.13;14.680644;0.6;15 / 20;102506;2018-04-03 08:09:24:171
3.0915;4.3631;7.9214;2.5574;4.6069;8.2708;0.5565;-0.307;-0.0104;0.039;0.0623;0.1364;71.0;-25.39;-117.93;-80.27;179.21;-28.08;-16.75;5.0;36.117;42.495647;-83.28436;561.29;NaN;39.13;14.680644;0.6;15 / 20;103007;2018-04-03 08:09:24:672
2.8743;4.3391;8.1876;2.5535;4.5862;8.2835;0.7689;-0.2681;0.3705;0.0465;0.0708;0.1314;71.0;-24.74;-119.48;-79.75;179.72;-27.88;-17.13;5.0;34.026;42.495647;-83.28436;561.29;NaN;39.13;14.680644;0.6;15 / 20;103507;2018-04-03 08:09:25:172
2.9617;4.0119;8.1571;2.6273;4.5028;8.3061;0.53;-0.4805;0.028;0.0383;0.0651;0.1017;71.0;-24.28;-120.11;-79.03;180.45;-27.54;-17.27;5.0;24.273;42.495647;-83.28436;561.29;NaN;39.13;14.680644;0.6;14 / 17;104007;2018-04-03 08:09:25:672
3.2488;3.9515;8.3701;2.648;4.4803;8.3118;0.5457;-0.5565;-0.3147;0.0329;0.0652;0.0867;71.0;-23.38;-119.81;-77.45;181.19;-27.18;-17.67;5.0;22.195;42.495647;-83.28436;561.29;NaN;39.13;14.680644;0.6;14 / 17;104507;2018-04-03 08:09:26:172
3.1788;4.2799;8.1697;2.6948;4.4466;8.3148;0.5482;-0.4138;0.0511;0.0235;0.0378;0.0626;64.0;-22.66;-119.3;-77.55;181.5;-27.0;-17.7;5.0;-4.406;42.495647;-83.28436;561.29;NaN;39.13;14.680644;0.6;16 / 21;105007;2018-04-03 08:09:26:672
3.2991;4.1866;8.1541;2.7449;4.4253;8.3098;0.8133;-0.6415;0.1464;0.0174;0.0204;0.0452;59.0;-22.89;-119.93;-78.61;182.4;-26.82;-18.28;5.0;-4.491;42.495647;-83.28436;561.29;NaN;39.13;14.680644;0.6;16 / 21;105507;2018-04-03 08:09:27:172
3.0885;4.865;7.8215;2.863;4.4144;8.2757;0.1971;0.3855;-0.5084;0.0139;0.0173;0.0228;59.0;-22.16;-120.55;-78.98;184.05;-26.75;-19.08;5.0;-4.004;42.495647;-83.28436;561.29;NaN;39.13;14.680644;0.6;16 / 21;106006;2018-04-03 08:09:27:671
3.2979;4.4492;8.1254;2.8975;4.4542;8.2423;0.3953;0.2656;-0.2863;0.0028;0.0097;0.0174;64.0;-22.33;-120.73;-79.22;184.41;-27.01;-19.37;5.0;-5.799;42.495647;-83.28436;561.29;NaN;39.13;14.680644;0.6;16 / 21;106507;2018-04-03 08:09:28:172
3.2434;4.7782;7.9699;2.9851;4.4545;8.2108;0.1485;0.6771;-0.5385;0.0045;0.0018;-0.0031;64.0;-22.18;-120.78;-79.07;185.11;-27.02;-19.98;5.0;-6.091;42.495647;-83.28436;561.29;NaN;39.13;14.680644;0.6;16 / 21;107007;2018-04-03 08:09:28:672
3.2686;4.7609;7.9376;3.0098;4.4971;8.1785;0.2644;0.473;-0.2758;0.0046;0.0013;0.0029;64.0;-22.25;-120.73;-79.1;185.11;-27.02;-19.98;5.0;8.322;42.495647;-83.28436;561.29;NaN;39.13;14.680644;0.6;16 / 21;107506;2018-04-03 08:09:29:171
3.2554;4.9015;7.9077;3.147;4.7314;7.9926;0.1093;0.149;-0.1698;8.0E-4;-3.0E-4;0.0021;81.0;-22.23;-121.15;-78.92;187.25;-28.85;-21.49;5.0;9.066;42.495647;-83.28436;561.29;NaN;39.13;14.680644;0.6;16 / 21;108007;2018-04-03 08:09:29:672
3.2303;4.9104;7.861;3.1865;4.8064;7.9319;0.0604;0.1227;-0.1337;0.0014;-9.0E-4;0.0028;86.0;-22.22;-121.2;-78.98;187.85;-29.35;-21.89;5.0;-6.017;42.495647;-83.28436;561.29;NaN;39.13;14.680644;0.6;16 / 21;108507;2018-04-03 08:09:30:172
3.3158;4.8548;7.8652;3.2246;4.865;7.8806;0.0599;-0.0225;0.0086;-0.0018;-9.0E-4;0.0034;81.0;-22.21;-120.96;-78.84;188.41;-29.74;-22.25;5.0;10.74;42.495647;-83.28436;561.29;NaN;39.13;14.680644;0.6;13 / 19;109007;2018-04-03 08:09:30:672
3.3254;4.868;7.9795;3.2315;4.8772;7.8703;0.0728;0.0272;0.0975;0.0014;-6.0E-4;0.0024;76.0;-22.26;-120.93;-79.33;188.52;-29.82;-22.32;5.0;-6.852;42.495647;-83.28436;561.29;NaN;39.13;14.680644;0.6;13 / 19;109506;2018-04-03 08:09:31:171
3.2105;4.8668;7.9059;3.2356;4.8923;7.8592;0.0511;0.0026;0.0515;0.0;-4.0E-4;0.0023;81.0;-22.16;-121.26;-79.24;188.61;-29.93;-22.38;5.0;-6.432;42.495647;-83.28436;561.29;NaN;39.13;14.680644;0.6;12 / 19;110006;2018-04-03 08:09:31:671
3.2111;4.8925;7.7707;3.2373;4.8929;7.8581;0.044;-0.0044;0.0398;-0.0017;-8.0E-4;0.0026;81.0;-22.24;-121.15;-79.19;188.63;-29.93;-22.39;5.0;-6.471;42.495647;-83.28436;561.29;NaN;39.13;14.680644;0.6;12 / 19;110507;2018-04-03 08:09:32:172
3.2153;4.935;7.8401;3.2372;4.8959;7.8563;-0.1231;0.0242;-0.1572;-4.0E-4;-2.0E-4;0.0023;81.0;-22.29;-120.95;-79.11;188.64;-29.95;-22.39;5.0;-8.022;42.495647;-83.28436;561.29;NaN;39.13;14.680644;0.6;14 / 21;111006;2018-04-03 08:09:32:671
3.2931;4.8751;7.9406;3.2375;4.8964;7.8559;-0.0755;0.0601;0.0126;9.0E-4;-5.0E-4;0.0025;81.0;-22.11;-120.91;-79.02;188.65;-29.95;-22.4;5.0;-5.363;42.495647;-83.28436;561.29;NaN;39.13;14.680644;0.6;14 / 21;111507;2018-04-03 08:09:33:172
3.1812;4.8913;7.7797;3.2416;4.8966;7.854;0.0761;-0.0149;0.038;-0.0012;-9.0E-4;0.0035;81.0;-22.35;-121.05;-78.84;188.66;-29.96;-22.41;5.0;-8.035;42.495647;-83.28436;561.29;NaN;39.13;14.680644;0.6;15 / 22;112007;2018-04-03 08:09:33:672
3.1675;4.9355;7.7898;3.2408;4.894;7.856;0.0129;0.0057;0.0168;1.0E-4;-4.0E-4;0.0025;81.0;-22.12;-121.08;-79.04;188.67;-29.94;-22.42;5.0;-6.662;42.495647;-83.28436;561.29;NaN;39.13;14.680644;0.6;15 / 22;112506;2018-04-03 08:09:34:171
3.3027;4.8668;7.879;3.2385;4.897;7.8551;-0.0578;0.0288;0.0283;0.0;4.0E-4;0.0024;81.0;-22.33;-121.2;-79.33;188.68;-29.95;-22.42;5.0;-4.793;42.495647;-83.28436;561.29;NaN;39.13;14.680644;0.6;15 / 22;113007;2018-04-03 08:09:34:672
3.1956;4.8901;7.7486;3.2406;4.8963;7.8546;0.0441;-0.0151;0.0147;0.0013;-0.0014;0.0;81.0;-22.29;-120.96;-79.13;188.67;-29.95;-22.42;5.0;-7.044;42.495647;-83.28436;561.29;NaN;39.13;14.680644;0.6;15 / 22;113507;2018-04-03 08:09:35:172
3.1627;4.9457;7.8245;3.2322;4.9;7.8558;-0.0503;0.0058;-0.1443;-6.0E-4;7.0E-4;5.0E-4;81.0;-22.34;-121.08;-79.24;188.65;-29.97;-22.39;5.0;-6.51;42.495647;-83.28436;561.29;NaN;39.13;14.680644;0.6;14 / 21;114007;2018-04-03 08:09:35:672
3.2949;4.8745;7.9328;3.2291;4.9023;7.8556;-0.0709;0.0505;0.0265;4.0E-4;0.0;2.0E-4;81.0;-22.3;-121.01;-79.63;188.99;-29.99;-22.35;5.0;-7.88;42.495647;-83.28436;561.29;NaN;39.13;14.680644;0.6;14 / 21;114507;2018-04-03 08:09:36:172
3.192;4.862;7.6911;3.2297;4.9017;7.8557;0.0364;-0.0191;0.0749;9.0E-4;0.0011;-3.0E-4;81.0;-22.13;-120.91;-79.28;188.6;-29.99;-22.35;5.0;-6.911;42.495647;-83.28436;561.29;NaN;39.13;14.680644;0.6;15 / 22;115007;2018-04-03 08:09:36:672
3.1794;4.9368;7.7456;3.2295;4.9012;7.8562;-0.0299;-0.0083;-0.0597;0.0018;-4.0E-4;-1.0E-4;81.0;-22.19;-120.88;-79.05;188.59;-29.99;-22.35;5.0;-5.816;42.495647;-83.28436;561.29;NaN;39.13;14.680644;0.6;15 / 22;115506;2018-04-03 08:09:37:171
3.2853;4.8703;7.8479;3.229;4.9021;7.8558;-0.0167;0.0203;-0.0063;-9.0E-4;-2.0E-4;-2.0E-4;81.0;-22.19;-121.02;-79.24;188.6;-29.99;-22.35;5.0;-6.892;42.495647;-83.28436;561.29;NaN;39.13;14.680644;0.6;15 / 22;116007;2018-04-03 08:09:37:672
3.2081;4.8787;7.7737;3.2293;4.9018;7.8559;0.0801;-0.0304;0.0958;-9.0E-4;0.0;-1.0E-4;81.0;-22.09;-121.06;-79.04;188.59;-29.99;-22.35;5.0;-7.0;42.495647;-83.28436;561.29;NaN;39.13;14.680644;0.6;15 / 22;116507;2018-04-03 08:09:38:172
3.2961;4.9026;7.8808;3.2278;4.9042;7.855;-0.1058;0.0474;-0.0912;5.0E-4;5.0E-4;-4.0E-4;81.0;-22.13;-120.96;-79.21;188.6;-29.99;-22.35;5.0;-2.218;42.495647;-83.28436;561.29;NaN;39.13;14.680644;0.6;14 / 21;117006;2018-04-03 08:09:38:671
3.2853;4.8668;7.9011;3.2285;4.9042;7.8547;-0.0295;0.0181;0.0854;0.0011;6.0E-4;-1.0E-4;81.0;-22.01;-120.91;-79.13;188.6;-30.01;-22.34;5.0;6.474;42.495647;-83.28436;561.29;NaN;39.13;14.680644;0.6;14 / 21;117507;2018-04-03 08:09:39:172
3.1178;4.9439;7.7306;3.2293;4.9031;7.855;0.0238;-0.0287;-0.0241;0.0014;-8.0E-4;-2.0E-4;81.0;-22.29;-120.96;-79.13;188.61;-30.0;-22.36;5.0;6.813;42.495647;-83.28436;561.29;NaN;39.13;14.680644;0.6;14 / 21;118007;2018-04-03 08:09:39:672
3.1902;4.9332;7.8676;3.2273;4.9035;7.8556;-0.0799;0.0098;-0.1525;-8.0E-4;0.0;0.0;81.0;-22.22;-120.88;-79.03;188.58;-30.0;-22.33;5.0;-0.641;42.495647;-83.28436;561.29;NaN;39.13;14.680644;0.6;14 / 21;118507;2018-04-03 08:09:40:172
3.2267;4.8691;7.8341;3.2303;4.9021;7.8552;-0.0426;0.0028;-0.0764;-1.0E-4;8.0E-4;-6.0E-4;81.0;-22.21;-120.97;-79.17;188.6;-29.99;-22.35;5.0;-7.176;42.495647;-83.28436;561.29;NaN;39.13;14.680644;0.6;12 / 19;119007;2018-04-03 08:09:40:672
3.1615;4.8787;7.7402;3.228;4.9025;7.8559;-0.0086;0.0571;0.0463;-3.0E-4;3.0E-4;-4.0E-4;81.0;-22.09;-120.76;-79.06;188.59;-29.99;-22.34;5.0;-7.946;42.495647;-83.28436;561.29;NaN;39.13;14.680644;0.6;12 / 19;119507;2018-04-03 08:09:41:172
3.3027;4.8662;7.8658;3.2276;4.9008;7.8572;0.01;0.0067;-0.0352;-8.0E-4;9.0E-4;-1.0E-4;81.0;-22.09;-121.03;-78.97;188.59;-29.99;-22.34;5.0;-6.82;42.495647;-83.28436;561.29;NaN;39.13;14.680644;0.6;12 / 19;120006;2018-04-03 08:09:41:671
3.2853;4.862;7.7994;3.2267;4.9047;7.8551;0.1034;-0.0282;0.0449;7.0E-4;4.0E-4;0.0;81.0;-22.15;-121.03;-79.17;188.58;-30.01;-22.33;5.0;-8.077;42.495647;-83.28436;561.29;NaN;39.13;14.680644;0.6;12 / 19;120507;2018-04-03 08:09:42:172
3.1932;4.9625;7.8831;3.2277;4.9043;7.855;-0.0955;0.064;-0.0626;-0.0021;1.0E-4;-2.0E-4;81.0;-22.1;-121.11;-79.28;188.59;-30.01;-22.34;5.0;-1.657;42.495647;-83.28436;561.29;NaN;39.13;14.680644;0.6;12 / 19;121006;2018-04-03 08:09:42:671
3.2524;4.9003;7.8796;3.23;4.9038;7.8543;-0.0231;0.03;0.0114;0.0011;2.0E-4;-7.0E-4;81.0;-22.09;-121.08;-79.37;188.61;-30.0;-22.35;5.0;-7.799;42.495647;-83.28436;561.29;NaN;39.13;14.680644;0.6;12 / 19;121507;2018-04-03 08:09:43:172
3.2309;4.8548;7.8173;3.2302;4.9018;7.8555;0.0429;-0.0432;0.0178;0.0;-0.0012;-9.0E-4;81.0;-22.46;-120.91;-79.05;188.6;-29.99;-22.35;5.0;-6.282;42.495647;-83.28436;561.29;NaN;39.13;14.680644;0.6;15 / 22;122007;2018-04-03 08:09:43:672
3.0927;4.9397;7.785;3.2269;4.9028;7.8562;-0.0899;0.0174;0.0049;-3.0E-4;4.0E-4;-4.0E-4;81.0;-22.29;-121.25;-79.06;188.58;-30.0;-22.33;5.0;-5.989;42.495647;-83.28436;561.29;NaN;39.13;14.680644;0.6;15 / 22;122507;2018-04-03 08:09:44:172
3.3051;4.8799;7.8664;3.229;4.9041;7.8545;0.0134;0.0132;-0.0518;-0.0022;0.0011;2.0E-4;81.0;-22.14;-121.18;-79.29;188.59;-30.01;-22.34;5.0;-7.681;42.495647;-83.28436;561.29;NaN;39.13;14.680644;0.6;14 / 22;123006;2018-04-03 08:09:44:671
3.2656;4.8739;7.809;3.2308;4.9036;7.8541;0.107;-0.0326;0.0294;2.0E-4;3.0E-4;-3.0E-4;81.0;-21.93;-121.19;-78.98;188.6;-30.01;-22.35;5.0;-5.39;42.495647;-83.28436;561.29;NaN;39.13;14.680644;0.6;14 / 22;123506;2018-04-03 08:09:45:171
3.1687;4.9308;7.7318;3.2294;4.9032;7.855;-0.0584;0.0118;-0.1326;0.0017;1.0E-4;-7.0E-4;81.0;-22.51;-121.09;-79.43;187.82;-30.0;-22.35;5.0;-7.853;42.495647;-83.28436;561.29;NaN;39.13;14.680644;0.6;13 / 22;124006;2018-04-03 08:09:45:671
3.1824;4.9403;7.9496;3.2282;4.9027;7.8557;-0.0925;0.0598;0.02;2.0E-4;-6.0E-4;-8.0E-4;81.0;-22.39;-120.71;-79.49;188.59;-30.0;-22.34;5.0;-0.401;42.495647;-83.28436;561.29;NaN;39.13;14.680644;0.6;13 / 22;124506;2018-04-03 08:09:46:171
3.2823;4.8488;7.8867;3.2302;4.8987;7.8574;0.0417;-0.0417;0.1502;-5.0E-4;5.0E-4;8.0E-4;81.0;-22.43;-120.93;-79.16;188.59;-29.99;-22.34;5.0;-7.436;42.495647;-83.28436;561.29;NaN;39.13;14.680644;0.6;12 / 21;125006;2018-04-03 08:09:46:671
3.1687;4.8715;7.7886;3.2299;4.8993;7.8572;0.0084;-0.0384;0.0214;1.0E-4;3.0E-4;0.0;81.0;-22.28;-120.93;-79.13;188.59;-29.97;-22.35;5.0;-6.979;42.495647;-83.28436;561.29;NaN;39.13;14.680644;0.6;12 / 21;125506;2018-04-03 08:09:47:171
3.1627;4.9218;7.7348;3.2294;4.9031;7.855;-0.0948;0.0241;-0.1593;-0.0012;0.0;-0.0014;81.0;-22.19;-120.95;-79.14;188.59;-29.99;-22.34;5.0;-7.476;42.495647;-83.28436;561.29;NaN;39.13;14.680644;0.6;12 / 21;126006;2018-04-03 08:09:47:671
3.2799;4.8991;7.858;3.2294;4.9039;7.8545;0.0046;0.0271;-0.0473;0.0;5.0E-4;-5.0E-4;81.0;-22.42;-120.95;-79.03;188.6;-30.0;-22.35;5.0;-7.482;42.495647;-83.28436;561.29;NaN;39.13;14.680644;0.6;12 / 21;126507;2018-04-03 08:09:48:172
3.2937;4.8739;7.8706;3.2315;4.9021;7.8548;0.0684;-0.0059;0.0585;1.0E-4;0.0;-5.0E-4;81.0;-22.27;-120.92;-79.1;188.61;-30.01;-22.35;5.0;-8.199;42.495647;-83.28436;561.29;NaN;39.13;14.680644;0.6;12 / 21;127007;2018-04-03 08:09:48:672
3.2422;4.8877;7.8;3.2315;4.9022;7.8547;0.0609;-0.0487;0.0148;4.0E-4;-8.0E-4;-2.0E-4;81.0;-22.18;-120.98;-79.36;188.62;-29.99;-22.36;5.0;-7.398;42.495647;-83.28436;561.29;NaN;39.13;14.680644;0.6;12 / 21;127506;2018-04-03 08:09:49:171
3.256;4.8608;7.8443;3.2272;4.9033;7.8557;-0.0869;0.0221;-0.0082;9.0E-4;7.0E-4;2.0E-4;81.0;-22.01;-121.12;-79.21;188.61;-29.99;-22.36;5.0;-7.707;42.495647;-83.28436;561.29;NaN;39.13;14.680644;0.6;12 / 21;128007;2018-04-03 08:09:49:672
3.1639;4.8757;7.7677;3.2285;4.9025;7.8558;-0.0144;0.0355;0.0086;0.0;-1.0E-4;-3.0E-4;81.0;-22.12;-120.86;-79.26;188.59;-29.99;-22.34;5.0;-5.287;42.495647;-83.28436;561.29;NaN;39.13;14.680644;0.6;12 / 21;128506;2018-04-03 08:09:50:171
3.2081;4.8985;7.8503;3.2294;4.9003;7.8568;0.0857;-0.06;0.072;0.0017;-8.0E-4;-2.0E-4;81.0;-22.1;-120.97;-79.19;188.59;-29.99;-22.34;5.0;-9.042;42.495647;-83.28436;561.29;NaN;39.13;14.680644;0.6;12 / 21;129007;2018-04-03 08:09:50:672
3.3033;4.8506;7.8329;3.2287;4.9014;7.8563;-0.0388;0.0056;-0.0478;-4.0E-4;-6.0E-4;-3.0E-4;81.0;-22.38;-121.0;-79.29;188.59;-29.99;-22.34;5.0;-5.993;42.495647;-83.28436;561.29;NaN;39.13;14.680644;0.6;12 / 21;129507;2018-04-03 08:09:51:172
3.1998;4.9314;7.8126;3.2304;4.9019;7.8554;0.069;-0.0188;0.1065;0.0011;4.0E-4;-5.0E-4;81.0;-22.22;-120.98;-78.91;188.59;-30.0;-22.34;5.0;-8.188;42.495647;-83.28436;561.29;NaN;39.13;14.680644;0.6;11 / 20;130007;2018-04-03 08:09:51:672
3.2787;4.8907;7.9382;3.229;4.9026;7.8555;0.043;-0.0229;0.0312;5.0E-4;-7.0E-4;0.0;81.0;-22.39;-120.91;-79.43;188.59;-29.99;-22.34;5.0;-8.322;42.495647;-83.28436;561.29;NaN;39.13;14.680644;0.6;11 / 20;130506;2018-04-03 08:09:52:171
3.2787;4.8859;7.9226;3.2268;4.9029;7.8562;-0.0523;0.0512;0.0403;0.0018;0.0;-0.0011;86.0;-22.39;-120.96;-79.22;188.58;-30.0;-22.33;5.0;-8.819;42.495647;-83.28436;561.29;NaN;39.13;14.680644;0.6;12 / 21;131006;2018-04-03 08:09:52:671
3.2949;4.8566;7.8987;3.2276;4.9023;7.8563;0.0592;8.0E-4;0.0604;-5.0E-4;-1.0E-4;-4.0E-4;86.0;-22.13;-120.69;-78.98;188.58;-29.99;-22.33;5.0;-7.185;42.495647;-83.28436;561.29;NaN;39.13;14.680644;0.6;12 / 21;131506;2018-04-03 08:09:53:171
3.1591;4.9248;7.8353;3.226;4.9063;7.8544;0.0793;-0.0016;0.0344;6.0E-4;6.0E-4;0.0;86.0;-21.98;-121.32;-79.14;188.58;-30.0;-22.33;5.0;22.147;42.495647;-83.28436;561.29;NaN;39.13;14.680644;0.6;12 / 21;132007;2018-04-03 08:09:53:672
3.1334;5.1096;7.7504;3.2147;4.9703;7.8187;0.0499;0.1384;0.009;0.0107;0.0052;0.0039;80.0;-21.69;-121.89;-79.12;188.47;-30.02;-22.33;5.0;20.405;42.495647;-83.28436;561.29;NaN;39.13;14.680644;0.6;12 / 21;132507;2018-04-03 08:09:54:172
2.8133;6.9491;6.8369;3.1549;5.3416;7.595;-0.4167;1.6293;-0.8811;0.0556;0.0116;0.0352;61.0;-21.64;-122.39;-78.83;189.78;-33.0;-22.56;5.0;35.71;42.495647;-83.28436;561.29;NaN;39.13;14.680644;0.6;11 / 20;133006;2018-04-03 08:09:54:671
2.7888;6.6745;6.9912;3.0128;5.9244;7.2108;-0.292;0.8026;-0.2922;0.0497;0.0524;0.087;66.0;-21.53;-122.95;-78.95;191.74;-37.17;-22.68;5.0;36.88;42.495647;-83.28436;561.29;NaN;39.13;14.680644;0.6;11 / 20;133506;2018-04-03 08:09:55:171
2.6321;6.6949;6.6496;3.0616;6.0498;7.085;-0.5846;0.6315;-0.1093;0.0501;0.0723;0.1369;61.0;-21.41;-125.65;-79.94;194.34;-38.09;-23.37;5.0;42.688;42.495647;-83.28436;561.29;NaN;39.13;14.680644;0.6;11 / 20;134007;2018-04-03 08:09:55:672
2.7571;5.136;7.9346;3.1219;5.9591;7.1354;-0.3939;-0.9446;0.5952;0.0374;0.0657;0.1268;50.0;-21.59;-127.65;-79.76;192.96;-37.42;-23.63;5.0;42.466;42.495647;-83.28436;561.29;NaN;39.13;14.680644;0.6;11 / 20;134506;2018-04-03 08:09:56:171
3.046;4.4965;8.2133;3.217;5.7861;7.2348;0.0797;-1.5079;0.9383;0.0303;0.0374;0.0906;45.0;-19.71;-129.5;-77.41;192.51;-36.16;-23.97;5.0;36.418;42.495647;-83.28436;561.29;NaN;39.13;14.680644;0.6;12 / 19;135006;2018-04-03 08:09:56:671
3.1549;4.7507;8.1404;3.2582;5.7009;7.2839;-0.1184;-1.0864;0.5693;0.0298;0.0527;0.0589;43.0;-18.72;-129.19;-76.81;193.48;-36.16;-23.97;5.0;34.676;42.495647;-83.28436;561.29;NaN;39.13;14.680644;0.6;12 / 19;135507;2018-04-03 08:09:57:172
3.0574;4.582;7.535;3.2897;5.5799;7.363;-0.0524;-0.7929;0.6392;0.0343;0.0376;0.0535;48.0;-17.94;-128.95;-77.45;193.7;-35.08;-23.98;5.0;32.374;42.495647;-83.28436;561.29;NaN;39.13;14.680644;0.6;13 / 19;136006;2018-04-03 08:09:57:671
3.0329;4.6622;7.8784;3.288;5.4938;7.4281;-0.3378;-0.5559;0.4966;0.0174;0.0288;0.0232;46.0;-18.68;-129.51;-76.28;191.74;-34.07;-23.88;5.0;37.214;42.495647;-83.28436;561.29;NaN;39.13;14.680644;0.6;13 / 19;136506;2018-04-03 08:09:58:171
3.4414;6.5232;6.6275;3.2797;5.6174;7.3389;0.2617;0.7781;-0.1524;0.0321;-0.0063;0.0029;37.0;-19.5;-130.6;-76.72;191.21;-34.18;-23.77;5.0;37.369;42.495647;-83.28436;561.29;NaN;39.13;14.680644;0.6;15 / 21;137007;2018-04-03 08:09:58:672
3.192;6.33;6.8477;3.2597;5.6757;7.3028;-0.0808;0.4702;-0.2208;0.0012;0.0072;0.0026;38.0;-17.69;-130.88;-75.07;192.65;-35.36;-24.05;5.0;39.267;42.495647;-83.28436;561.29;NaN;39.13;14.680644;0.6;15 / 21;137507;2018-04-03 08:09:59:172
3.2177;5.6528;7.0522;3.2874;5.6826;7.285;0.0128;-0.0625;-0.0189;0.0025;0.0071;0.0041;38.0;-16.76;-129.85;-75.33;193.58;-35.4;-24.05;5.0;42.703;42.495647;-83.28436;561.29;NaN;39.13;14.680644;0.6;14 / 19;138006;2018-04-03 08:09:59:671
3.3194;5.4775;7.3603;3.3035;5.6922;7.2702;0.0906;0.0924;-0.2262;0.0087;0.0079;0.0215;39.0;-17.87;-129.74;-76.97;194.26;-35.48;-24.44;5.0;42.603;42.495647;-83.28436;561.29;NaN;39.13;14.680644;0.6;14 / 19;138506;2018-04-03 08:10:00:171
3.1902;5.2;7.6498;3.3485;5.7067;7.2382;0.1295;-0.6948;0.007;0.0385;-0.0035;-0.0016;43.0;-20.42;-130.71;-76.54;193.09;-35.59;-24.83;5.0;42.105;42.495647;-83.28436;561.29;NaN;39.13;14.680644;0.6;16 / 22;139007;2018-04-03 08:10:00:672
5.2588;2.7054;8.7541;3.4799;5.4961;7.3385;1.538;-2.8542;1.6173;-0.0387;-0.0402;-0.0437;45.0;-20.81;-130.7;-76.82;192.27;-34.09;-25.37;5.0;42.629;42.495647;-83.28436;561.29;NaN;39.13;14.680644;0.6;16 / 22;139506;2018-04-03 08:10:01:171
4.8981;4.2967;7.4716;3.6894;5.2259;7.433;2.0371;-1.1249;-0.0258;-0.1397;-0.1952;-0.3058;36.0;-20.9;-128.01;-76.41;192.56;-32.85;-26.12;5.0;34.564;42.495647;-83.28436;561.29;NaN;39.13;14.680644;0.6;16 / 22;140007;2018-04-03 08:10:01:672
5.0871;4.0035;7.2933;3.832;5.1441;7.4178;1.6007;-1.1561;-0.2904;-0.2096;-0.2593;-0.3429;65.0;-20.92;-126.37;-78.07;193.84;-32.2;-26.4;5.0;38.917;42.495647;-83.28436;561.29;NaN;39.13;14.680644;0.6;16 / 22;140507;2018-04-03 08:10:02:172
5.0261;5.974;6.082;4.0922;5.1002;7.3084;1.6979;1.5078;-1.5981;-0.2151;-0.2369;-0.3971;65.0;-24.24;-121.5;-80.46;194.37;-30.53;-27.93;5.0;42.656;42.495647;-83.28436;561.29;NaN;39.13;14.680644;0.6;16 / 22;141007;2018-04-03 08:10:02:672
5.802;5.185;6.4469;4.2363;5.2191;7.1404;1.6491;0.3521;-0.9865;-0.2044;-0.2251;-0.3921;38.0;-26.3;-120.66;-81.2;195.72;-31.34;-29.25;5.0;42.447;42.495647;-83.28436;561.29;NaN;39.13;14.680644;0.6;16 / 22;141506;2018-04-03 08:10:03:171
4.7916;6.4113;6.2369;4.1982;5.4576;6.9828;0.7568;0.4507;0.2909;-0.139;-0.1574;-0.2586;31.0;-29.27;-117.25;-78.77;196.42;-33.03;-30.86;5.0;46.608;42.495647;-83.28436;561.29;NaN;39.13;14.680644;0.6;15 / 21;142006;2018-04-03 08:10:03:671
5.1212;6.2145;5.4957;4.2293;5.5589;6.8835;1.289;0.3733;-0.6342;-0.0932;-0.1553;-0.2178;29.0;-34.94;-114.88;-76.46;191.81;-34.53;-31.57;5.0;45.03;42.495647;-83.28436;561.29;NaN;39.13;14.680644;0.6;15 / 21;142507;2018-04-03 08:10:04:172
4.0181;6.5549;6.1729;4.1389;5.7189;6.8069;0.3418;0.5866;-0.4529;-0.0453;-0.0809;-0.0978;34.0;-38.34;-112.68;-76.71;190.43;-35.04;-31.61;5.0;45.811;42.495647;-83.28436;561.29;NaN;39.13;14.680644;0.6;14 / 20;143007;2018-04-03 08:10:04:672
4.2018;6.3581;6.4229;4.0918;5.7987;6.7678;0.0233;0.271;-0.1055;-0.021;-0.0444;-0.0714;78.0;-39.08;-116.36;-78.87;190.21;-36.25;-31.16;5.0;52.686;42.495647;-83.28436;561.29;NaN;39.13;14.680644;0.6;14 / 20;143506;2018-04-03 08:10:05:171
4.4075;5.4847;7.1719;4.0746;5.8552;6.7294;0.4222;0.1368;0.7045;-0.0431;-0.0491;-0.0693;78.0;-38.47;-116.17;-79.64;192.54;-36.58;-31.27;5.0;52.688;42.495647;-83.28436;561.29;NaN;39.13;14.680644;0.6;14 / 20;144006;2018-04-03 08:10:05:671
4.2945;5.7354;6.7801;4.0608;5.8503;6.742;0.8087;-0.629;-0.3059;-0.0392;-0.0312;-0.0553;80.0;-37.76;-116.32;-79.43;191.31;-36.62;-31.06;5.0;52.016;42.495647;-83.28436;561.29;NaN;39.13;14.680644;0.6;14 / 20;144507;2018-04-03 08:10:06:172
3.393;5.779;7.4052;3.9382;5.8453;6.8186;-0.3515;-0.3204;-0.1228;-0.0082;1.0E-4;-0.0012;85.0;-37.56;-116.2;-79.42;190.19;-36.7;-30.48;5.0;54.158;42.495647;-83.28436;561.29;NaN;39.13;14.680644;0.6;13 / 18;145006;2018-04-03 08:10:06:671
3.5509;5.6504;6.8644;3.928;5.8137;6.8515;0.0307;-0.0753;0.9697;3.0E-4;-0.0095;0.0053;85.0;-37.1;-117.24;-80.4;190.33;-36.36;-29.83;5.0;49.698;42.495647;-83.28436;561.29;NaN;39.13;14.680644;0.6;13 / 18;145507;2018-04-03 08:10:07:172
3.8297;5.6648;7.2257;3.868;5.7648;6.9265;-0.3183;-0.2283;1.0423;-0.0193;0.0078;0.0016;85.0;-36.44;-115.31;-80.26;191.3;-36.28;-29.59;5.0;56.317;42.495647;-83.28436;561.29;NaN;39.13;14.680644;0.6;13 / 18;146006;2018-04-03 08:10:07:671
3.5491;5.4691;6.9823;3.8409;5.7457;6.9574;0.2854;-0.4538;0.7196;-0.0043;5.0E-4;0.0012;80.0;-37.36;-116.51;-81.02;189.61;-36.0;-29.18;5.0;57.504;42.495647;-83.28436;561.29;NaN;39.13;14.680644;0.6;13 / 18;146506;2018-04-03 08:10:08:171
2.6404;5.1395;6.9206;3.8125;5.5787;7.1072;0.4822;-1.0515;0.6208;-0.0096;-0.0056;-0.0023;80.0;-37.15;-115.49;-78.53;186.66;-35.29;-28.44;5.0;54.472;42.495647;-83.28436;561.29;NaN;39.13;14.680644;0.6;17 / 22;147006;2018-04-03 08:10:08:671
3.6472;4.8901;7.3639;3.811;5.537;7.1406;-0.1531;-0.4735;0.7455;0.011;-0.0062;-0.0077;80.0;-38.19;-115.21;-78.78;184.62;-34.38;-28.09;5.0;54.961;42.495647;-83.28436;561.29;NaN;39.13;14.680644;0.6;17 / 22;147506;2018-04-03 08:10:09:171
3.5072;5.1706;7.203;3.7674;5.4873;7.2018;0.0922;-0.745;-0.289;-0.0077;-0.0016;0.0048;80.0;-37.93;-115.73;-76.84;182.83;-34.14;-27.85;5.0;42.712;42.495647;-83.28436;561.29;NaN;39.13;14.680644;0.6;15 / 19;148006;2018-04-03 08:10:09:671
3.9278;5.3609;7.7043;3.7674;5.4827;7.2054;-0.1863;-0.1306;-0.3446;0.0205;0.0154;-0.0105;80.0;-38.21;-114.98;-78.3;183.01;-33.99;-27.6;5.0;42.082;42.495647;-83.28436;561.29;NaN;39.13;14.680644;0.6;15 / 19;148507;2018-04-03 08:10:10:172
3.5401;5.3208;7.6038;3.7128;5.4754;7.2392;-0.1934;-0.0027;-0.2522;0.0033;0.0021;-0.0089;80.0;-37.58;-115.37;-77.51;182.66;-33.96;-27.41;5.0;40.688;42.495647;-83.28436;561.29;NaN;39.13;14.680644;0.6;16 / 21;149007;2018-04-03 08:10:10:672
3.2889;5.2275;7.0403;3.7181;5.433;7.2683;0.1816;-0.1295;0.6982;-0.0053;-0.0023;0.0049;80.0;-37.94;-115.5;-78.47;182.0;-33.64;-27.09;5.0;42.524;42.495647;-83.28436;561.29;NaN;39.13;14.680644;0.6;16 / 21;149506;2018-04-03 08:10:11:171
3.2913;5.3621;7.6857;3.6622;5.4169;7.3086;0.0167;-0.1093;0.2019;-0.0087;-4.0E-4;0.0169;80.0;-36.94;-114.69;-77.07;182.21;-33.66;-26.92;5.0;43.544;42.495647;-83.28436;561.29;NaN;39.13;14.680644;0.6;16 / 21;150007;2018-04-03 08:10:11:672
3.8111;5.1605;7.8179;3.6519;5.4185;7.3126;-0.3879;-0.1383;0.2852;4.0E-4;0.0059;0.0084;85.0;-37.44;-115.57;-77.79;182.04;-33.54;-26.54;5.0;41.744;42.495647;-83.28436;561.29;NaN;39.13;14.680644;0.6;16 / 21;150507;2018-04-03 08:10:12:172
3.6981;5.3118;7.4441;3.6222;5.3765;7.3582;-0.0947;0.1114;0.5686;-0.0171;0.0116;0.0239;85.0;-36.77;-114.4;-78.48;181.5;-33.25;-26.21;5.0;45.062;42.495647;-83.28436;561.29;NaN;39.13;14.680644;0.6;14 / 20;151007;2018-04-03 08:10:12:672
3.3732;5.1778;7.7168;3.6139;5.3685;7.3681;-0.4104;0.0616;-0.1491;0.0051;0.0114;0.0142;80.0;-37.03;-114.46;-78.18;181.34;-33.19;-26.13;5.0;43.798;42.495647;-83.28436;561.29;NaN;39.13;14.680644;0.6;14 / 20;151506;2018-04-03 08:10:13:171
3.2063;5.2837;7.1874;3.5562;5.35;7.4096;0.6391;-0.3944;0.788;-0.0256;0.0263;0.0096;80.0;-36.06;-114.01;-78.31;182.04;-33.22;-25.92;5.0;48.493;42.495647;-83.28436;561.29;NaN;39.13;14.680644;0.6;15 / 21;152007;2018-04-03 08:10:13:672
2.5483;4.3804;7.7988;3.5356;5.3523;7.4177;0.5721;0.3329;1.2068;-0.0207;0.0277;0.0179;85.0;-36.02;-114.54;-78.58;181.75;-33.08;-25.48;5.0;49.423;42.495647;-83.28436;561.29;NaN;39.13;14.680644;0.6;15 / 21;152507;2018-04-03 08:10:14:172
2.4167;4.8345;7.8574;3.4745;5.2882;7.4922;-0.0283;-0.2253;0.7442;0.0034;0.0097;0.0158;80.0;-36.18;-113.6;-77.49;179.7;-32.63;-24.88;5.0;47.697;42.495647;-83.28436;561.29;NaN;39.13;14.680644;0.6;16 / 22;153006;2018-04-03 08:10:14:671
3.5372;4.6281;8.1918;3.4776;5.2305;7.5312;0.3372;-0.4916;-0.6044;-4.0E-4;0.0092;0.0129;80.0;-36.44;-113.61;-77.26;179.7;-32.63;-24.88;5.0;46.405;42.495647;-83.28436;561.29;NaN;39.13;14.680644;0.6;16 / 22;153507;2018-04-03 08:10:15:172
3.4773;4.8512;7.73;3.5581;5.1345;7.5596;0.1877;-0.3481;-0.2087;-0.0092;-0.0038;-0.0247;80.0;-36.54;-113.23;-76.84;179.17;-31.81;-25.17;5.0;43.285;42.495647;-83.28436;561.29;NaN;39.13;14.680644;0.6;16 / 22;154007;2018-04-03 08:10:15:672
4.5499;4.6006;8.9557;3.6098;5.0757;7.5747;-0.44;-0.4226;-0.3225;-0.0174;-0.0267;-0.0122;80.0;-37.5;-114.41;-77.49;178.73;-31.17;-25.48;5.0;45.915;42.495647;-83.28436;561.29;NaN;39.13;14.680644;0.6;16 / 22;154506;2018-04-03 08:10:16:171
3.2381;4.3206;7.005;3.5727;5.017;7.6312;-0.008;-0.4171;-1.1248;0.0082;0.0116;-0.0133;85.0;-37.51;-113.95;-76.95;178.9;-31.08;-25.58;5.0;47.225;42.495647;-83.28436;561.29;NaN;39.13;14.680644;0.6;16 / 21;155006;2018-04-03 08:10:16:671
4.6055;4.0783;7.3226;3.6092;4.9687;7.6457;1.1724;-0.5679;0.4594;-0.0247;-0.0313;-0.0107;85.0;-37.38;-113.44;-77.52;179.53;-30.77;-25.09;5.0;48.926;42.495647;-83.28436;561.29;NaN;39.13;14.680644;0.6;16 / 21;155507;2018-04-03 08:10:17:172
3.1035;4.7046;8.5334;3.5088;4.867;7.757;0.7875;-0.3403;0.7328;-0.0221;0.0192;-0.0323;80.0;-38.31;-112.78;-77.89;177.43;-29.76;-24.34;5.0;45.066;42.495647;-83.28436;561.29;NaN;39.13;14.680644;0.6;16 / 21;156006;2018-04-03 08:10:17:671
3.4749;4.8045;8.5501;3.5234;4.8853;7.7389;0.3847;-0.343;0.8684;-0.0352;0.0202;-0.0076;58.0;-37.66;-112.9;-78.14;177.63;-29.88;-24.48;5.0;42.478;42.495647;-83.28436;561.29;NaN;39.13;14.680644;0.6;16 / 21;156507;2018-04-03 08:10:18:172
3.6753;4.6819;8.2582;3.5647;4.8184;7.7619;-0.0875;-0.3063;0.0203;-0.0045;-0.016;-0.0056;44.0;-37.69;-112.95;-77.91;177.63;-29.88;-24.48;5.0;43.355;42.495647;-83.28436;561.29;NaN;39.13;14.680644;0.6;16 / 22;157006;2018-04-03 08:10:18:671
4.0833;4.7286;8.1332;3.6053;4.7865;7.7628;-0.0972;-0.4927;-0.5763;-0.0169;-0.0077;0.0;44.0;-37.58;-113.55;-77.46;177.98;-29.22;-24.91;5.0;46.517;42.495647;-83.28436;561.29;NaN;39.13;14.680644;0.6;16 / 22;157507;2018-04-03 08:10:19:172
4.0043;4.3786;6.8524;3.6209;4.7623;7.7704;0.4629;-0.0735;-1.1812;0.0039;0.0023;-0.0076;42.0;-37.89;-113.51;-77.09;178.1;-29.05;-24.98;5.0;44.984;42.495647;-83.28436;561.29;NaN;39.13;14.680644;0.6;15 / 21;158006;2018-04-03 08:10:19:671
3.3415;4.5054;7.124;3.6218;4.7576;7.7729;-0.0182;0.0129;0.1444;0.0018;-0.0094;-0.0011;42.0;-37.64;-113.66;-77.13;178.1;-29.02;-24.98;5.0;45.193;42.495647;-83.28436;561.29;NaN;39.13;14.680644;0.6;15 / 21;158507;2018-04-03 08:10:20:172
3.2392;4.506;8.7302;3.6327;4.7527;7.7709;-0.4231;-0.0742;-0.0902;0.0098;0.0036;-0.0109;39.0;-37.96;-113.33;-77.26;178.18;-28.93;-25.05;5.0;42.029;42.495647;-83.28436;561.29;NaN;39.13;14.680644;0.6;15 / 20;159007;2018-04-03 08:10:20:672
3.2847;4.6131;7.2825;3.6497;4.7298;7.7769;-0.2026;0.0998;-0.0314;0.0018;-0.0019;-0.007;42.0;-38.18;-113.6;-77.43;178.21;-28.99;-25.05;5.0;44.118;42.495647;-83.28436;561.29;NaN;39.13;14.680644;0.6;15 / 20;159506;2018-04-03 08:10:21:171
3.0119;4.5838;7.8849;3.6294;4.7383;7.7812;-0.184;0.3502;0.3111;0.0156;0.003;-0.0012;42.0;-37.94;-113.5;-76.53;178.36;-28.83;-25.17;5.0;43.3;42.495647;-83.28436;561.29;NaN;39.13;14.680644;0.6;17 / 21;160006;2018-04-03 08:10:21:671
3.5342;4.7459;7.7862;3.6219;4.7427;7.7819;0.5596;-0.0029;0.4986;0.0074;0.0181;-0.0079;42.0;-37.94;-112.98;-77.18;178.12;-28.89;-25.01;5.0;45.853;42.495647;-83.28436;561.29;NaN;39.13;14.680644;0.6;17 / 21;160507;2018-04-03 08:10:22:172
4.176;4.6897;10.0301;3.7255;4.5826;7.8289;0.0678;-0.1302;0.2748;-0.0912;-0.0825;0.0805;44.0;-38.0;-113.6;-77.14;177.98;-28.89;-24.89;5.0;42.34;42.495647;-83.28436;561.29;NaN;39.13;14.680644;0.6;16 / 22;161006;2018-04-03 08:10:22:671
2.0016;3.6691;5.4287;3.6372;4.6491;7.8312;-1.3908;-0.9465;-0.8582;0.0786;0.0074;-0.0258;49.0;-38.01;-112.23;-77.49;177.99;-28.3;-24.91;5.0;50.678;42.495647;-83.28436;561.29;NaN;39.13;14.680644;0.6;16 / 22;161507;2018-04-03 08:10:23:172
3.7986;4.1184;8.397;3.6229;4.5536;7.8937;-0.0273;-0.2089;0.8193;-0.0122;-0.0064;-0.0042;44.0;-37.84;-112.61;-77.65;177.99;-27.88;-24.6;5.0;44.45;42.495647;-83.28436;561.29;NaN;39.13;14.680644;0.6;15 / 21;162006;2018-04-03 08:10:23:671
3.8398;3.8396;7.9131;3.5974;4.4783;7.9482;0.098;-0.7557;0.5374;-0.0175;-0.0049;0.0104;49.0;-37.93;-112.22;-77.55;177.66;-27.17;-24.35;5.0;41.723;42.495647;-83.28436;561.29;NaN;39.13;14.680644;0.6;15 / 21;162507;2018-04-03 08:10:24:172
3.7124;3.6398;8.9665;3.5655;4.3415;8.038;-0.2611;-0.5562;0.4815;0.0135;8.0E-4;0.0044;52.0;-37.94;-112.3;-77.38;177.04;-26.83;-24.15;5.0;42.326;42.495647;-83.28436;561.29;NaN;39.13;14.680644;0.6;16 / 21;163007;2018-04-03 08:10:24:672
3.1687;4.2608;8.0901;3.5558;4.3655;8.0293;-0.3266;-0.0261;0.6282;0.0141;-4.0E-4;-0.0055;55.0;-37.96;-112.33;-77.58;177.07;-26.43;-23.89;5.0;42.699;42.495647;-83.28436;561.29;NaN;39.13;14.680644;0.6;16 / 21;163507;2018-04-03 08:10:25:172
3.8488;3.7218;8.2845;3.4909;4.3078;8.0887;0.0454;-0.4051;0.7613;-0.0077;0.0272;0.0174;61.0;-37.58;-112.5;-77.75;176.86;-26.36;-23.7;5.0;42.207;42.495647;-83.28436;561.29;NaN;39.13;14.680644;0.6;16 / 22;164007;2018-04-03 08:10:25:672
3.0472;3.2785;8.254;3.4406;4.2297;8.1513;-0.1441;-0.6913;-0.0154;0.021;0.0129;0.0479;66.0;-36.93;-112.33;-78.12;176.63;-25.55;-22.88;5.0;43.879;42.495647;-83.28436;561.29;NaN;39.13;14.680644;0.6;16 / 22;164506;2018-04-03 08:10:26:171
2.7003;4.107;8.4873;3.2145;4.2352;8.2402;-1.2149;-0.2059;0.5365;0.0484;0.0568;0.0473;75.0;-36.36;-112.16;-78.46;176.71;-25.47;-22.31;5.0;43.953;42.495647;-83.28436;561.29;NaN;39.13;14.680644;0.6;14 / 20;165007;2018-04-03 08:10:26:672
2.1553;4.0861;8.9623;3.0395;4.2671;8.29;-1.2798;-0.0795;0.6076;0.0653;0.1058;0.1448;75.0;-35.47;-112.39;-78.71;176.5;-25.59;-21.31;5.0;41.729;42.495647;-83.28436;561.29;NaN;39.13;14.680644;0.6;14 / 20;165507;2018-04-03 08:10:27:172
1.0468;3.7409;9.4786;2.5393;4.3134;8.4331;-1.9086;-0.3522;0.5936;0.0899;0.1777;0.2085;72.0;-32.86;-113.5;-80.09;172.46;-26.09;-16.76;5.0;43.794;42.495647;-83.28436;561.29;NaN;39.13;14.680644;0.6;14 / 20;166007;2018-04-03 08:10:27:672
1.91;4.3708;9.585;2.325;4.4018;8.4492;-1.4934;0.2524;0.1957;0.1273;0.1715;0.314;72.0;-31.14;-113.88;-80.05;174.17;-26.09;-16.76;5.0;43.744;42.495647;-83.28436;561.29;NaN;39.13;14.680644;0.6;14 / 20;166507;2018-04-03 08:10:28:172
1.5116;5.1246;8.6782;2.0986;4.735;8.3274;-1.1335;0.105;0.4008;0.1579;0.1988;0.3369;77.0;-27.18;-116.96;-79.73;174.51;-27.96;-14.48;5.0;43.682;42.495647;-83.28436;561.29;NaN;39.13;14.680644;0.6;16 / 21;167010;2018-04-03 08:10:28:675
0.9182;4.5814;9.469;1.9412;4.9126;8.2625;-1.0311;-0.6569;1.5365;0.1527;0.1776;0.3616;77.0;-25.61;-118.4;-79.92;174.85;-28.87;-14.14;5.0;43.564;42.495647;-83.28436;561.29;NaN;39.13;14.680644;0.6;16 / 21;167507;2018-04-03 08:10:29:172
1.3549;4.649;8.7428;1.8632;5.1104;8.1598;-0.5379;-0.7255;0.4164;0.1523;0.2166;0.3472;54.0;-21.59;-122.28;-79.57;176.58;-31.41;-12.86;5.0;42.779;42.495647;-83.28436;561.29;NaN;39.13;14.680644;0.6;16 / 21;168006;2018-04-03 08:10:29:671
0.844;5.2005;8.6345;1.8053;5.3629;8.0094;-0.6473;-0.4022;0.7787;0.1355;0.2352;0.3737;65.0;-19.97;-124.36;-78.88;178.1;-32.24;-12.78;5.0;42.922;42.495647;-83.28436;561.29;NaN;39.13;14.680644;0.6;16 / 21;168506;2018-04-03 08:10:30:171
0.5419;5.2113;9.195;1.7666;5.4861;7.9343;-0.8925;-0.5433;0.7897;0.1301;0.2445;0.3752;65.0;-17.77;-129.11;-77.78;179.43;-34.02;-12.55;5.0;45.296;42.495647;-83.28436;561.29;NaN;39.13;14.680644;0.6;16 / 21;169006;2018-04-03 08:10:30:671
0.6053;5.4159;10.952;1.711;5.785;7.7315;-1.5149;-0.8228;0.5053;0.19;0.2422;0.4056;70.0;-16.82;-131.64;-76.48;179.74;-34.82;-12.4;5.0;47.074;42.495647;-83.28436;561.29;NaN;39.13;14.680644;0.6;16 / 21;169506;2018-04-03 08:10:31:171
0.4002;5.3465;8.4341;1.7293;6.1192;7.4656;-1.7948;-0.216;1.546;0.1693;0.2279;0.435;70.0;-18.56;-137.13;-71.49;177.67;-38.61;-13.04;5.0;45.683;42.495647;-83.28436;561.29;NaN;39.13;14.680644;0.6;15 / 19;170007;2018-04-03 08:10:31:672
0.7483;5.4895;8.9832;2.0167;6.2225;7.3064;-1.6011;-1.3617;0.6094;0.1474;0.242;0.4279;65.0;-19.78;-139.89;-70.61;178.37;-39.14;-14.36;5.0;42.886;42.495647;-83.28436;561.29;NaN;39.13;14.680644;0.6;15 / 19;170508;2018-04-03 08:10:32:173
1.0265;5.5445;8.1936;2.1321;6.2371;7.2611;-1.4727;-1.1317;0.7132;0.114;0.2479;0.3351;56.0;-21.79;-143.45;-66.47;177.82;-39.49;-16.36;5.0;44.539;42.495647;-83.28436;561.29;NaN;39.13;14.680644;0.6;15 / 19;171006;2018-04-03 08:10:32:671
1.7689;6.257;7.7115;2.2422;6.2649;7.2038;-0.9787;0.0537;0.1003;0.1215;0.1838;0.2449;42.0;-23.26;-143.95;-65.0;177.36;-39.36;-16.89;5.0;42.54;42.495647;-83.28436;561.29;NaN;39.13;14.680644;0.6;15 / 19;171507;2018-04-03 08:10:33:172
1.7521;6.4574;7.4901;2.2176;6.3386;7.1466;-0.8497;-9.0E-4;0.1978;0.0896;0.1398;0.216;42.0;-23.78;-144.16;-63.57;176.68;-39.71;-17.29;5.0;43.829;42.495647;-83.28436;561.29;NaN;39.13;14.680644;0.6;16 / 20;172007;2018-04-03 08:10:33:672
2.062;6.3042;7.4255;2.3855;6.3712;7.0631;0.2407;-0.2516;-0.1099;0.0436;0.0428;0.0963;42.0;-26.54;-147.21;-65.57;175.15;-40.41;-17.75;5.0;43.107;42.495647;-83.28436;561.29;NaN;39.13;14.680644;0.6;16 / 20;172507;2018-04-03 08:10:34:172
2.4634;6.0847;7.4877;2.4611;6.3575;7.0495;-0.0281;-0.4533;0.4906;0.0332;0.0296;0.0601;42.0;-29.49;-146.11;-63.44;174.31;-40.41;-19.24;5.0;45.991;42.495647;-83.28436;561.29;NaN;39.13;14.680644;0.6;16 / 20;173006;2018-04-03 08:10:34:671
2.8995;5.7611;7.2867;2.5524;6.3096;7.06;0.2491;-0.4836;0.5037;0.0103;0.0216;0.028;54.0;-29.14;-146.24;-62.73;174.62;-40.33;-19.53;5.0;45.233;42.495647;-83.28436;561.29;NaN;39.13;14.680644;0.6;16 / 20;173506;2018-04-03 08:10:35:171
3.2147;5.8347;7.4925;2.6308;6.2556;7.0793;0.3813;-0.5595;-0.4647;-0.0031;-0.0166;-0.0118;40.0;-29.98;-146.21;-62.52;174.82;-39.63;-20.39;5.0;44.147;42.495647;-83.28436;561.29;NaN;39.13;14.680644;0.6;14 / 18;174006;2018-04-03 08:10:35:671
3.2111;5.6833;6.6987;2.7852;6.2147;7.0562;-0.3662;-0.7501;-0.5344;0.0222;-0.0598;-0.0033;43.0;-29.34;-146.52;-63.03;176.37;-39.47;-21.07;5.0;49.239;42.495647;-83.28436;561.29;NaN;39.13;14.680644;0.6;14 / 18;174506;2018-04-03 08:10:36:171
3.2811;5.2406;7.3274;2.7904;6.1932;7.073;-0.3119;-0.3069;0.5032;-0.0158;-0.0131;0.0013;56.0;-30.32;-145.29;-63.57;176.27;-39.16;-21.53;5.0;48.454;42.495647;-83.28436;561.29;NaN;39.13;14.680644;0.6;15 / 20;175006;2018-04-03 08:10:36:671
2.9019;5.5995;7.4153;2.8129;6.067;7.1728;0.8086;-0.8395;0.3816;-0.0018;0.0115;-0.0077;56.0;-29.36;-148.45;-66.52;178.03;-38.63;-21.51;5.0;43.788;42.495647;-83.28436;561.29;NaN;39.13;14.680644;0.6;15 / 20;175506;2018-04-03 08:10:37:171
3.0215;5.6678;7.5793;2.8154;6.0046;7.2242;0.0739;-0.504;0.5104;0.0091;0.0088;0.0025;56.0;-29.84;-146.27;-61.99;175.76;-37.76;-21.29;5.0;44.869;42.495647;-83.28436;561.29;NaN;39.13;14.680644;0.6;17 / 22;176007;2018-04-03 08:10:37:672
2.4227;5.4799;6.5862;2.8455;5.9195;7.2824;-0.4728;-1.6937;-0.5913;0.0176;0.0304;0.0137;56.0;-32.18;-147.23;-64.89;175.19;-37.55;-21.38;5.0;49.523;42.495647;-83.28436;561.29;NaN;39.13;14.680644;0.6;17 / 22;176507;2018-04-03 08:10:38:172
2.8977;4.777;7.2718;2.8159;5.839;7.3585;0.3491;-0.6703;0.6642;-0.0357;0.0301;0.0266;56.0;-33.25;-146.71;-63.77;173.99;-36.54;-20.94;5.0;46.677;42.495647;-83.28436;561.29;NaN;39.13;14.680644;0.6;16 / 22;177007;2018-04-03 08:10:38:672
2.3132;4.9505;6.679;2.8419;5.719;7.4422;-1.3412;-0.9932;-0.2689;0.0299;-0.0191;0.0599;56.0;-37.44;-146.7;-62.57;171.15;-36.29;-21.13;5.0;45.36;42.495647;-83.28436;561.29;NaN;39.13;14.680644;0.6;16 / 22;177506;2018-04-03 08:10:39:171
2.8953;5.0079;7.5015;2.9215;5.6729;7.4467;-0.0866;-0.6667;0.3778;0.0172;0.015;0.0258;56.0;-35.56;-144.24;-59.76;171.49;-35.34;-21.42;5.0;52.796;42.495647;-83.28436;561.29;NaN;39.13;14.680644;0.6;14 / 21;178007;2018-04-03 08:10:39:672
2.6638;5.0725;7.6827;2.947;5.5805;7.5062;-0.112;-0.6764;0.2852;0.0096;0.0144;0.0241;56.0;-34.94;-143.51;-59.49;172.13;-35.01;-21.5;5.0;48.517;42.495647;-83.28436;561.29;NaN;39.13;14.680644;0.6;14 / 21;178507;2018-04-03 08:10:40:172
3.058;4.6346;7.5763;2.9785;5.5316;7.5299;0.2737;-0.8086;0.3333;0.0121;-0.0082;0.0105;53.0;-32.98;-144.46;-58.77;173.68;-34.34;-21.58;5.0;47.389;42.495647;-83.28436;561.29;NaN;39.13;14.680644;0.6;12 / 18;179007;2018-04-03 08:10:40:672
3.0885;4.6562;7.5338;2.972;5.3658;7.6515;0.3801;-0.7644;0.394;-0.014;0.0119;0.0019;50.0;-36.09;-143.87;-57.26;171.38;-33.88;-21.57;5.0;53.352;42.495647;-83.28436;561.29;NaN;39.13;14.680644;0.6;12 / 18;179506;2018-04-03 08:10:41:171
3.5228;4.8015;8.878;2.9917;5.3367;7.6642;0.4513;-0.6705;1.6068;0.02;-0.0074;0.0031;50.0;-33.01;-143.66;-59.24;173.72;-32.97;-21.32;5.0;51.162;42.495647;-83.28436;561.29;NaN;39.13;14.680644;0.6;12 / 20;180007;2018-04-03 08:10:41:672
2.9922;4.454;8.2056;3.0149;5.2464;7.7173;0.4951;-0.2106;1.4467;-0.0071;-0.0028;0.0309;50.0;-33.35;-144.49;-60.48;173.95;-32.66;-21.29;5.0;50.81;42.495647;-83.28436;561.29;NaN;39.13;14.680644;0.6;12 / 20;180506;2018-04-03 08:10:42:171
3.2052;5.371;7.9077;3.0427;5.2386;7.7116;0.7417;-0.3296;0.145;-0.0014;-0.0049;-0.0072;50.0;-34.12;-144.19;-59.59;173.57;-32.29;-21.53;5.0;55.952;42.495647;-83.28436;561.29;NaN;39.13;14.680644;0.6;14 / 22;181007;2018-04-03 08:10:42:672
3.1435;5.4135;7.1725;3.0534;5.2872;7.6741;0.4184;0.0566;-0.3365;0.0078;0.0073;-0.014;50.0;-33.8;-144.59;-59.22;173.5;-32.63;-21.7;5.0;49.046;42.495647;-83.28436;561.29;NaN;39.13;14.680644;0.6;14 / 22;181507;2018-04-03 08:10:43:172
2.8582;5.8119;6.8931;3.0585;5.3461;7.6312;0.0169;0.2962;-0.8064;-0.0071;-0.0077;-0.0045;50.0;-33.98;-144.78;-60.28;173.75;-33.03;-21.84;5.0;52.839;42.495647;-83.28436;561.29;NaN;39.13;14.680644;0.6;14 / 22;182007;2018-04-03 08:10:43:672
3.7381;5.9064;7.1479;3.0832;5.4671;7.5349;0.037;0.1047;-0.737;0.0035;-0.0145;-0.0064;44.0;-37.03;-144.6;-57.62;171.48;-33.39;-22.02;5.0;54.726;42.495647;-83.28436;561.29;NaN;39.13;14.680644;0.6;14 / 22;182507;2018-04-03 08:10:44:172
3.0215;6.1039;7.7838;3.0637;5.4928;7.5242;-0.4021;0.3898;-1.1297;-0.0215;0.0064;-0.0021;44.0;-33.51;-145.55;-60.16;173.88;-34.06;-22.16;5.0;50.713;42.495647;-83.28436;561.29;NaN;39.13;14.680644;0.6;12 / 20;183006;2018-04-03 08:10:44:671
2.6321;5.9675;7.1521;3.0661;5.5332;7.4936;0.7874;0.3791;0.2649;-0.0063;-0.0182;-0.0074;44.0;-34.58;-144.03;-60.2;173.11;-34.35;-22.25;5.0;48.691;42.495647;-83.28436;561.29;NaN;39.13;14.680644;0.6;12 / 20;183507;2018-04-03 08:10:45:172
3.652;5.5643;8.0614;3.0406;5.5818;7.4678;0.0204;-0.0233;-0.5189;-0.0051;0.0066;-0.013;46.0;-37.35;-143.87;-58.1;171.18;-34.69;-22.15;5.0;45.883;42.495647;-83.28436;561.29;NaN;39.13;14.680644;0.6;14 / 22;184007;2018-04-03 08:10:45:672
3.1088;5.1437;8.1751;3.0448;5.4998;7.5268;0.2668;-0.6037;0.4821;-0.0129;0.0085;-0.0019;46.0;-33.31;-144.69;-59.63;174.36;-34.11;-22.02;5.0;46.644;42.495647;-83.28436;561.29;NaN;39.13;14.680644;0.6;14 / 22;184506;2018-04-03 08:10:46:171
3.1387;4.6346;7.7372;3.0396;5.4209;7.5859;0.1449;-0.5842;0.6668;-0.0011;0.001;-0.0029;46.0;-33.48;-144.04;-59.17;174.08;-34.11;-22.02;5.0;45.767;42.495647;-83.28436;561.29;NaN;39.13;14.680644;0.6;15 / 22;185007;2018-04-03 08:10:46:672
2.738;4.5413;7.2317;3.0475;5.3009;7.667;0.395;-0.6022;0.5552;-0.0111;0.0016;0.0028;49.0;-33.4;-144.52;-60.73;174.58;-33.16;-21.84;5.0;44.793;42.495647;-83.28436;561.29;NaN;39.13;14.680644;0.6;15 / 22;185506;2018-04-03 08:10:47:171
3.4761;4.512;8.3479;3.0622;5.2436;7.7005;0.1223;-0.5502;-0.0673;-0.0178;0.0067;-2.0E-4;49.0;-34.48;-144.43;-59.03;173.48;-32.32;-21.69;5.0;43.606;42.495647;-83.28436;561.29;NaN;39.13;14.680644;0.6;14 / 21;186006;2018-04-03 08:10:47:671
3.2171;4.6783;8.1398;3.087;5.1376;7.7618;-0.0959;-0.6008;0.5711;0.0213;0.0078;-0.0078;46.0;-36.16;-142.72;-55.12;171.46;-31.96;-21.72;5.0;44.035;42.495647;-83.28436;561.29;NaN;39.13;14.680644;0.6;14 / 21;186507;2018-04-03 08:10:48:172
3.2285;3.8462;6.3535;3.1088;5.0527;7.8087;0.4389;-0.9767;0.5206;-0.0017;-0.0041;9.0E-4;46.0;-33.99;-142.21;-59.7;173.8;-31.01;-21.71;5.0;43.131;42.495647;-83.28436;561.29;NaN;39.13;14.680644;0.6;14 / 21;187006;2018-04-03 08:10:48:671
3.4893;2.9932;8.9898;3.1552;4.7838;7.9581;-0.5897;-1.7777;0.4655;0.0438;-0.0199;-8.0E-4;46.0;-33.24;-143.36;-60.39;174.53;-30.16;-21.62;5.0;44.585;42.495647;-83.28436;561.29;NaN;39.13;14.680644;0.6;14 / 21;187507;2018-04-03 08:10:49:172
3.3248;3.312;9.3416;3.2277;4.6578;8.0036;0.2821;-1.5258;0.9282;0.0115;-0.0123;-0.0242;49.0;-33.86;-143.49;-59.05;174.24;-28.36;-21.96;5.0;44.039;42.495647;-83.28436;561.29;NaN;39.13;14.680644;0.6;15 / 21;188007;2018-04-03 08:10:49:672
4.6349;4.3858;8.9551;3.2421;4.5458;8.0619;-0.8602;0.286;-0.1618;0.0016;-0.02;0.0136;49.0;-33.89;-142.71;-57.26;173.93;-27.75;-21.96;5.0;55.812;42.495647;-83.28436;561.29;NaN;39.13;14.680644;0.6;14 / 21;188507;2018-04-03 08:10:50:172
2.0452;3.982;5.5669;3.1716;4.5244;8.1019;-0.6182;0.4168;0.462;0.0338;0.0513;0.0037;60.0;-31.49;-140.88;-56.09;174.96;-27.48;-21.38;5.0;53.201;42.495647;-83.28436;561.29;NaN;39.13;14.680644;0.6;14 / 21;189007;2018-04-03 08:10:50:672
2.4801;4.451;8.6788;3.111;4.5753;8.0969;-0.5287;0.3016;-0.1112;0.0089;-5.0E-4;0.0151;54.0;-31.16;-142.4;-57.31;174.92;-27.81;-21.02;5.0;56.516;42.495647;-83.28436;561.29;NaN;39.13;14.680644;0.6;14 / 21;189506;2018-04-03 08:10:51:171
3.5695;3.7738;9.4014;3.1071;4.5641;8.1047;-0.0059;-0.3305;0.2787;0.0117;0.0144;-0.0034;51.0;-30.79;-142.12;-61.31;175.68;-27.74;-20.98;5.0;51.894;42.49661;-83.28533;538.71;NaN;44.14;24.467743;178.2;13 / 18;190007;2018-04-03 08:10:51:672
3.2769;4.3194;8.2445;3.0818;4.5212;8.1383;0.1095;-0.0923;0.8844;0.0371;0.0063;0.001;54.0;-31.64;-144.52;-59.18;174.73;-27.45;-20.74;5.0;51.634;42.49661;-83.28533;538.71;NaN;44.14;24.467743;178.2;13 / 18;190507;2018-04-03 08:10:52:172
4.0947;4.5282;8.5226;3.0892;4.5244;8.1337;0.439;-0.025;0.4315;-0.017;-0.0107;0.0096;54.0;-29.23;-142.18;-57.04;175.93;-27.48;-20.8;5.0;55.48;42.49661;-83.28533;538.71;NaN;44.14;24.467743;178.2;14 / 21;191007;2018-04-03 08:10:52:672
2.9647;4.646;8.5579;3.1118;4.5617;8.1042;0.3471;0.1856;0.0928;0.0244;0.0144;-0.0059;54.0;-31.18;-143.92;-60.69;175.78;-27.72;-21.01;5.0;47.18;42.49661;-83.28533;538.71;NaN;44.14;24.467743;178.2;14 / 21;191506;2018-04-03 08:10:53:171
3.3427;4.8739;8.6961;3.123;4.5774;8.091;-0.0454;-0.1179;0.1393;-0.0046;0.0079;-2.0E-4;54.0;-30.78;-144.05;-57.77;175.26;-27.82;-21.11;5.0;44.376;42.49661;-83.28533;538.71;NaN;44.14;24.467743;178.2;15 / 21;192007;2018-04-03 08:10:53:672
3.2835;4.6382;8.2379;3.1521;4.5774;8.0797;0.1741;-0.035;-0.1772;-0.0112;0.0043;0.0083;49.0;-31.09;-143.54;-59.89;175.79;-27.82;-21.31;5.0;41.784;42.49661;-83.28533;538.71;NaN;44.14;24.467743;178.2;15 / 21;192507;2018-04-03 08:10:54:172
2.9096;5.3142;7.8808;3.1456;4.6379;8.0477;-0.2362;0.5751;-0.0969;0.0023;-0.0098;-0.0036;38.0;-32.11;-144.81;-59.25;175.08;-27.82;-21.31;5.0;45.433;42.49661;-83.28533;538.71;NaN;44.14;24.467743;178.2;14 / 20;193006;2018-04-03 08:10:54:671
3.1136;5.6504;8.0459;3.1415;4.7652;7.9746;0.1762;0.6121;-0.7374;0.0343;-0.0152;-0.0072;41.0;-29.48;-140.35;-56.81;176.07;-28.62;-21.27;5.0;39.816;42.49661;-83.28533;538.71;NaN;44.14;24.467743;178.2;14 / 20;193506;2018-04-03 08:10:55:171
3.4588;5.6031;7.3472;3.162;4.8278;7.9287;0.2168;0.5869;-0.2545;0.001;-4.0E-4;-8.0E-4;44.0;-31.21;-142.26;-59.92;175.72;-29.07;-21.5;5.0;43.862;42.49661;-83.28533;538.71;NaN;44.14;24.467743;178.2;15 / 21;194007;2018-04-03 08:10:55:672
3.2303;5.5954;8.0255;3.2;4.9745;7.8221;0.615;1.0119;0.2496;-0.0037;-0.0185;-0.0043;42.0;-32.63;-143.86;-58.71;174.62;-29.8;-21.89;5.0;46.75;42.49661;-83.28533;538.71;NaN;44.14;24.467743;178.2;15 / 21;194507;2018-04-03 08:10:56:172
3.4145;4.8506;7.5506;3.2092;5.0001;7.8019;-0.0778;0.6431;-0.273;0.0143;0.0108;-0.0238;42.0;-33.54;-144.73;-57.87;174.05;-30.48;-22.25;5.0;44.175;42.49661;-83.28533;538.71;NaN;44.14;24.467743;178.2;13 / 19;195007;2018-04-03 08:10:56:672
3.1746;5.4775;7.5493;3.1713;5.0234;7.8025;0.0488;-0.1181;-0.257;0.0105;-0.0043;-0.0139;49.0;-33.21;-144.02;-60.3;174.87;-30.81;-22.12;5.0;44.401;42.49661;-83.28533;538.71;NaN;44.14;24.467743;178.2;13 / 19;195506;2018-04-03 08:10:57:171
3.6562;5.6582;8.0686;3.1783;5.0907;7.7559;-0.2553;0.5901;-0.1997;-0.0134;-0.0048;-0.0079;49.0;-32.62;-144.27;-58.68;174.71;-31.27;-22.28;5.0;45.309;42.49661;-83.28533;538.71;NaN;44.14;24.467743;178.2;16 / 22;196007;2018-04-03 08:10:57:672
3.39;5.5463;7.3938;3.2812;5.1314;7.6859;0.516;0.1647;-0.0456;0.0141;0.0013;-0.0124;49.0;-33.38;-139.18;-55.49;174.13;-31.55;-23.12;5.0;45.138;42.49661;-83.28533;538.71;NaN;44.14;24.467743;178.2;16 / 22;196507;2018-04-03 08:10:58:172
3.5054;5.054;7.745;3.2787;5.1421;7.6798;0.404;0.1115;0.4794;-0.0059;0.0012;-0.0133;49.0;-34.34;-143.91;-62.39;175.39;-31.55;-23.12;5.0;44.331;42.49661;-83.28533;538.71;NaN;44.14;24.467743;178.2;10 / 17;197007;2018-04-03 08:10:58:672
3.104;5.3298;7.5344;3.2319;5.1837;7.6717;-0.0895;-0.196;-0.1405;0.0056;0.0146;-0.0143;52.0;-34.29;-143.62;-55.69;173.95;-31.69;-23.04;5.0;44.171;42.49661;-83.28533;538.71;NaN;44.14;24.467743;178.2;15 / 21;197507;2018-04-03 08:10:59:172
3.5425;5.3058;7.3956;3.2376;5.1615;7.6842;0.1265;0.349;-0.1822;-0.0071;0.0043;-0.0052;52.0;-32.71;-140.76;-56.98;174.47;-31.76;-22.85;5.0;42.682;42.49661;-83.28533;538.71;NaN;44.14;24.467743;178.2;15 / 21;198006;2018-04-03 08:10:59:671
2.8875;5.5457;7.453;3.2581;5.1756;7.6661;0.0735;0.0828;-1.6942;-0.0381;-0.011;0.0018;52.0;-33.48;-142.43;-59.43;174.99;-31.77;-22.87;5.0;43.12;42.49661;-83.28533;538.71;NaN;44.14;24.467743;178.2;15 / 21;198507;2018-04-03 08:11:00:172
3.4713;4.7968;6.9164;3.2852;5.191;7.644;0.5503;-0.0097;0.0498;-9.0E-4;-0.0101;-0.0126;52.0;-35.44;-142.73;-57.46;173.62;-31.96;-23.26;5.0;42.752;42.49661;-83.28533;538.71;NaN;44.14;24.467743;178.2;14 / 20;199007;2018-04-03 08:11:00:672
3.4229;4.8398;8.3509;3.2172;5.2001;7.6668;0.0308;-0.0222;-1.9252;-0.0554;-0.0011;0.0084;65.0;-34.35;-144.08;-60.59;174.75;-31.76;-22.65;5.0;48.402;42.49661;-83.28533;538.71;NaN;44.14;24.467743;178.2;14 / 20;199506;2018-04-03 08:11:01:171
2.9635;4.8512;8.1667;3.2358;5.1237;7.7103;0.7468;-0.2735;0.6235;-0.0051;-0.0054;-0.0146;65.0;-32.9;-144.45;-59.84;175.27;-31.5;-22.77;5.0;45.978;42.49661;-83.28533;538.71;NaN;44.14;24.467743;178.2;16 / 22;200006;2018-04-03 08:11:01:671
2.3192;5.313;7.7414;3.2117;5.139;7.7101;0.2951;0.0398;0.2391;0.006;-0.0021;-0.0215;65.0;-33.63;-143.84;-60.66;174.83;-31.48;-22.69;5.0;46.749;42.49661;-83.28533;538.71;NaN;44.14;24.467743;178.2;16 / 22;200507;2018-04-03 08:11:02:172
3.2847;4.8931;8.0919;3.1987;5.1163;7.7306;0.3639;-0.2754;0.2885;0.0099;0.0029;-0.0126;60.0;-32.72;-144.76;-61.63;175.55;-31.45;-22.48;5.0;46.1;42.49661;-83.28533;538.71;NaN;44.14;24.467743;178.2;15 / 21;201007;2018-04-03 08:11:02:672
4.2598;5.0055;8.6183;3.2142;5.0699;7.7547;-1.196;-0.0308;0.2363;0.0222;-0.0105;-0.0109;60.0;-31.91;-145.02;-61.86;176.18;-31.29;-22.48;5.0;48.686;42.49661;-83.28533;538.71;NaN;44.14;24.467743;178.2;15 / 21;201506;2018-04-03 08:11:03:171
3.2243;4.5742;7.1515;3.2297;5.0483;7.7624;0.2701;-0.2758;0.2066;0.0317;-0.006;-0.0186;60.0;-32.84;-144.53;-61.14;175.47;-30.98;-22.59;5.0;47.46;42.49661;-83.28533;538.71;NaN;44.14;24.467743;178.2;15 / 21;202006;2018-04-03 08:11:03:671
2.9174;4.7968;6.7125;3.284;5.0053;7.7674;1.2659;-0.4152;-0.629;0.0177;-0.0118;-0.0157;60.0;-32.3;-144.0;-60.3;175.95;-30.86;-22.77;5.0;45.854;42.49661;-83.28533;538.71;NaN;44.14;24.467743;178.2;15 / 21;202507;2018-04-03 08:11:04:172
4.3968;5.0007;7.9591;3.2882;4.988;7.7768;0.5297;-0.808;1.5464;-0.0126;-0.0226;-0.0143;60.0;-31.73;-144.07;-60.84;176.33;-30.57;-22.92;5.0;45.282;42.49661;-83.28533;538.71;NaN;44.14;24.467743;178.2;14 / 21;203007;2018-04-03 08:11:04:672
4.0935;4.2446;8.6243;3.3128;4.9173;7.8112;1.091;-0.6723;-0.7856;-0.0242;-0.0033;-0.0133;60.0;-31.78;-144.03;-61.33;176.41;-30.23;-22.98;5.0;47.73;42.49661;-83.28533;538.71;NaN;44.14;24.467743;178.2;14 / 21;203506;2018-04-03 08:11:05:171
4.2574;4.3924;7.6104;3.3458;4.8688;7.8276;0.7648;-0.1527;-0.587;0.0125;0.0047;-0.0369;55.0;-29.54;-143.79;-60.94;177.74;-29.77;-23.14;5.0;47.92;42.49661;-83.28533;538.71;NaN;44.14;24.467743;178.2;14 / 20;204006;2018-04-03 08:11:05:671
4.3106;4.5318;9.6508;3.3569;4.7747;7.8806;0.0567;-0.6878;0.7984;-0.0521;-0.0043;-0.0331;55.0;-28.93;-143.56;-60.7;178.4;-29.53;-23.24;5.0;45.381;42.49661;-83.28533;538.71;NaN;44.14;24.467743;178.2;14 / 20;204507;2018-04-03 08:11:06:172
3.5461;4.4474;8.1727;3.297;4.7876;7.898;0.7708;-0.3771;-1.6993;-0.0525;0.0078;-0.0415;55.0;-27.68;-144.16;-62.34;178.79;-29.22;-22.66;5.0;45.335;42.49661;-83.28533;538.71;NaN;44.14;24.467743;178.2;14 / 20;205006;2018-04-03 08:11:06:671
4.736;5.2466;9.1196;3.3247;4.8118;7.8717;1.6287;0.1587;0.6692;0.0217;-0.0624;-0.105;52.0;-26.74;-144.16;-61.99;179.04;-29.03;-22.21;5.0;47.723;42.49661;-83.28533;538.71;NaN;44.14;24.467743;178.2;14 / 20;205506;2018-04-03 08:11:07:171
4.5691;3.9126;7.0995;3.4296;4.7875;7.8414;1.331;-0.1996;0.7782;-0.0844;-0.0644;-0.0918;51.0;-25.49;-144.61;-63.06;181.43;-29.22;-23.62;5.0;47.462;42.49661;-83.28533;538.71;NaN;44.14;24.467743;178.2;14 / 20;206006;2018-04-03 08:11:07:671
5.3605;4.1555;7.6481;3.7005;4.7312;7.752;1.3141;-0.1782;-0.8619;-0.0229;-0.1123;-0.1362;51.0;-26.26;-144.73;-63.84;181.65;-28.79;-24.35;5.0;53.35;42.49661;-83.28533;538.71;NaN;44.14;24.467743;178.2;14 / 20;206506;2018-04-03 08:11:08:171
6.5605;3.7469;8.9653;3.7798;4.6749;7.7478;-0.0974;-0.2167;-1.751;-0.0463;-0.0785;-0.1373;51.0;-24.44;-143.91;-64.24;183.94;-28.47;-26.01;5.0;48.783;42.49661;-83.28533;538.71;NaN;44.14;24.467743;178.2;14 / 20;207006;2018-04-03 08:11:08:671
4.2185;5.2406;6.7113;3.8057;4.7951;7.6612;1.1032;-0.4154;0.1268;-0.0159;-0.1031;-0.1337;51.0;-24.01;-143.28;-64.8;184.49;-28.35;-26.32;5.0;47.59;42.49661;-83.28533;538.71;NaN;44.14;24.467743;178.2;14 / 20;207507;2018-04-03 08:11:09:172
3.3745;4.6927;6.8901;3.8174;4.8325;7.6318;0.091;-0.0304;-0.291;-0.0395;-0.0368;-0.0889;52.0;-21.84;-143.17;-65.46;185.9;-29.52;-26.57;5.0;45.771;42.49661;-83.28533;538.71;NaN;44.14;24.467743;178.2;15 / 20;208006;2018-04-03 08:11:09:671
4.3561;5.3854;6.6467;3.8776;4.9437;7.5296;0.2696;0.5691;0.4144;-8.0E-4;-0.0673;-0.1076;51.0;-21.81;-142.76;-66.33;186.39;-29.61;-26.8;5.0;46.618;42.49661;-83.28533;538.71;NaN;44.14;24.467743;178.2;15 / 20;208507;2018-04-03 08:11:10:172
4.6642;5.0109;7.0971;4.0232;4.9359;7.458;2.0837;-0.1894;0.7286;-0.0645;-0.0729;-0.106;51.0;-21.4;-142.63;-68.05;188.87;-30.22;-28.34;5.0;47.68;42.49661;-83.28533;538.71;NaN;44.14;24.467743;178.2;17 / 20;209007;2018-04-03 08:11:10:672
6.1393;4.7663;6.7603;4.2332;5.0477;7.2643;1.42;0.1959;-0.3142;-0.0322;-0.1175;-0.11;54.0;-21.26;-142.05;-68.76;190.02;-30.72;-29.1;5.0;48.608;42.49661;-83.28533;538.71;NaN;44.14;24.467743;178.2;17 / 20;209507;2018-04-03 08:11:11:172
5.3605;4.8141;7.0319;4.4041;5.036;7.1703;0.7952;-0.4918;0.3897;-0.0362;-0.0866;-0.1169;54.0;-20.75;-141.64;-70.04;192.35;-30.9;-31.56;5.0;48.071;42.49661;-83.28533;538.71;NaN;44.14;24.467743;178.2;17 / 20;210007;2018-04-03 08:11:11:672
5.3437;4.4235;7.1958;4.5793;4.9937;7.0897;0.6708;-0.3296;-0.2274;-0.0287;-0.074;-0.0886;60.0;-20.85;-140.18;-70.45;192.99;-30.67;-32.17;5.0;46.459;42.49661;-83.28533;538.71;NaN;44.14;24.467743;178.2;17 / 20;210506;2018-04-03 08:11:12:171
5.4676;4.9906;8.4634;4.6206;4.982;7.0711;0.4529;-0.2693;0.767;-0.0575;-0.0408;-0.0717;60.0;-20.27;-139.9;-72.03;195.02;-30.53;-33.16;5.0;48.045;42.49661;-83.28533;538.71;NaN;44.14;24.467743;178.2;17 / 20;211007;2018-04-03 08:11:12:672
2.47;5.2173;7.1258;4.5004;5.071;7.0853;-1.5878;-0.1308;-0.0945;0.0247;-0.0149;-0.0481;60.0;-20.0;-139.5;-72.09;194.69;-31.14;-32.42;5.0;48.761;42.49661;-83.28533;538.71;NaN;44.14;24.467743;178.2;17 / 20;211507;2018-04-03 08:11:13:172
3.1573;5.5014;7.9525;4.4673;5.0964;7.088;-0.4199;0.3162;1.895;0.0411;-0.0198;-0.0289;60.0;-20.29;-138.71;-71.81;194.75;-31.31;-32.22;5.0;48.106;42.49661;-83.28533;538.71;NaN;44.14;24.467743;178.2;17 / 20;212006;2018-04-03 08:11:13:671
3.4079;4.8662;7.5781;4.4157;5.074;7.1362;-2.0489;-0.2501;-1.1442;-0.0028;-0.0228;-0.0101;65.0;-20.47;-139.7;-71.86;194.17;-31.16;-31.75;5.0;47.63;42.49661;-83.28533;538.71;NaN;44.14;24.467743;178.2;17 / 20;212506;2018-04-03 08:11:14:171
3.2446;4.4348;7.812;4.3473;5.0339;7.2063;-1.3949;0.0655;1.269;-0.0145;0.008;0.0155;62.0;-20.41;-139.51;-71.86;193.56;-30.89;-31.1;5.0;46.445;42.49661;-83.28533;538.71;NaN;44.14;24.467743;178.2;17 / 20;213006;2018-04-03 08:11:14:671
2.3826;5.0492;8.68;4.1233;4.9596;7.3872;-1.2877;-0.5992;1.9884;0.036;0.0408;0.0242;46.0;-20.88;-139.31;-71.54;192.41;-30.77;-30.22;5.0;45.186;42.49661;-83.28533;538.71;NaN;44.14;24.467743;178.2;17 / 20;213506;2018-04-03 08:11:15:171
2.586;5.2233;8.2283;3.9764;4.9609;7.4665;-2.0105;-0.1232;1.0636;0.0319;0.0247;0.084;49.0;-21.31;-139.68;-71.18;190.01;-30.39;-28.04;5.0;46.365;42.49661;-83.28533;538.71;NaN;44.14;24.467743;178.2;17 / 20;214006;2018-04-03 08:11:15:671
2.1015;5.6067;8.5053;3.7915;5.0189;7.5236;-1.0692;-0.1587;-0.5217;7.0E-4;0.0347;0.0837;54.0;-22.53;-139.77;-70.24;188.19;-30.86;-27.51;5.0;46.294;42.49661;-83.28533;538.71;NaN;44.14;24.467743;178.2;17 / 20;214507;2018-04-03 08:11:16:172
2.1505;5.4494;7.4829;3.6794;5.0672;7.5469;-1.7909;0.4746;-0.1081;0.0015;0.0386;0.0845;64.0;-23.74;-140.45;-69.33;186.0;-31.11;-25.99;5.0;45.535;42.49661;-83.28533;538.71;NaN;44.14;24.467743;178.2;17 / 20;215006;2018-04-03 08:11:16:671
2.1852;5.3196;7.5852;3.5099;5.1632;7.5626;-1.2402;0.2601;0.2058;0.074;0.0279;0.0496;59.0;-24.63;-140.6;-68.47;184.6;-31.38;-25.46;5.0;46.092;42.49661;-83.28533;538.71;NaN;44.14;24.467743;178.2;17 / 20;215506;2018-04-03 08:11:17:171
2.443;5.2484;9.4319;3.4171;5.1539;7.6112;-0.9482;0.2126;-0.1409;0.0217;0.0556;0.0643;65.0;-25.33;-141.33;-68.2;183.52;-31.71;-24.18;5.0;47.103;42.49661;-83.28533;538.71;NaN;44.14;24.467743;178.2;17 / 20;216007;2018-04-03 08:11:17:672
3.0071;5.115;8.6614;3.2612;5.1801;7.6617;-0.8872;0.203;-0.7684;0.0176;0.0413;0.0534;70.0;-25.77;-140.95;-67.45;182.16;-31.76;-23.68;5.0;47.225;42.49661;-83.28533;538.71;NaN;44.14;24.467743;178.2;17 / 20;216506;2018-04-03 08:11:18:171
2.4424;5.5822;8.071;3.1348;5.1839;7.7117;-0.1716;0.2724;0.2278;0.0285;0.0237;0.0679;70.0;-25.41;-142.15;-67.31;181.43;-31.91;-22.12;5.0;47.875;42.49661;-83.28533;538.71;NaN;44.14;24.467743;178.2;17 / 20;217007;2018-04-03 08:11:18:672
3.0353;5.5038;7.2598;2.9954;5.2002;7.756;-0.6149;-0.088;0.7962;0.0531;0.0283;0.0431;70.0;-25.72;-142.51;-67.37;180.41;-32.0;-21.68;5.0;48.663;42.49661;-83.28533;538.71;NaN;44.14;24.467743;178.2;17 / 20;217507;2018-04-03 08:11:19:172
3.0717;4.9074;8.3426;2.9792;5.1848;7.7726;-0.751;-0.2973;0.6944;-0.0029;0.0246;0.0239;70.0;-25.98;-141.84;-66.24;179.55;-31.92;-20.97;5.0;45.972;42.49661;-83.28533;538.71;NaN;44.14;24.467743;178.2;17 / 20;218006;2018-04-03 08:11:19:671
2.8414;4.704;8.5322;2.9794;5.1199;7.8154;-0.3159;-0.658;0.3321;0.0124;0.0204;0.0155;70.0;-26.31;-141.98;-66.93;179.7;-31.86;-20.87;5.0;47.264;42.49661;-83.28533;538.71;NaN;44.14;24.467743;178.2;17 / 20;218507;2018-04-03 08:11:20:172
4.5703;4.4935;8.3677;2.9928;5.0755;7.8392;0.1289;-0.0833;-0.6739;-0.0081;0.0206;0.0013;70.0;-26.54;-142.08;-66.78;179.06;-31.47;-20.87;5.0;46.313;42.49661;-83.28533;538.71;NaN;44.14;24.467743;178.2;17 / 20;219006;2018-04-03 08:11:20:671
3.4504;4.384;7.0827;3.0133;4.9862;7.8884;0.5019;-0.327;-0.1061;-0.0174;0.0096;-0.0312;65.0;-26.53;-141.7;-66.6;179.06;-30.86;-20.84;5.0;47.073;42.49661;-83.28533;538.71;NaN;44.14;24.467743;178.2;17 / 20;219507;2018-04-03 08:11:21:172
4.7114;4.259;9.6598;3.0205;4.9889;7.884;0.6066;-0.5917;1.333;-0.0519;-0.0155;0.0039;65.0;-26.35;-142.7;-65.58;179.52;-30.56;-20.91;5.0;47.401;42.49661;-83.28533;538.71;NaN;44.14;24.467743;178.2;17 / 20;220006;2018-04-03 08:11:21:671
1.6253;3.4023;6.7047;3.0314;4.7547;8.0233;1.5925;-1.3779;-2.3044;-0.0994;0.096;-0.0159;65.0;-29.57;-140.28;-65.33;176.91;-29.12;-20.98;5.0;58.178;42.49661;-83.28533;538.71;NaN;44.14;24.467743;178.2;17 / 20;220507;2018-04-03 08:11:22:172
-0.2292;4.9972;2.5519;3.0559;4.6008;8.1033;2.3617;-1.1422;1.477;-0.0258;0.0232;0.0014;65.0;-29.59;-139.08;-62.31;176.02;-29.0;-20.7;5.0;58.013;42.49661;-83.28533;538.71;NaN;44.14;24.467743;178.2;16 / 20;221006;2018-04-03 08:11:22:671
1.6474;3.8953;5.2229;3.1028;4.5691;8.1035;4.8524;1.353;2.6635;0.1434;-0.0185;0.0029;65.0;-28.24;-140.41;-65.84;179.02;-28.22;-21.77;5.0;58.474;42.49661;-83.28533;538.71;NaN;44.14;24.467743;178.2;16 / 20;221506;2018-04-03 08:11:23:171
2.4251;5.0127;6.74;3.1399;4.4749;8.1416;-0.1332;1.4738;-0.0123;-0.0116;-0.0214;-0.0323;70.0;-27.78;-140.25;-65.15;178.17;-27.77;-20.95;5.0;57.458;42.49661;-83.28533;538.71;NaN;44.14;24.467743;178.2;16 / 20;222007;2018-04-03 08:11:23:672
1.4578;3.1074;7.1145;3.2793;4.3851;8.1356;1.6602;1.5856;3.1968;0.0795;0.1435;-0.0031;1.0;-26.53;-141.13;-66.22;179.24;-26.85;-21.26;5.0;60.199;42.49661;-83.28533;538.71;NaN;44.14;24.467743;178.2;16 / 20;222506;2018-04-03 08:11:24:171
2.9413;2.0672;7.9693;3.2884;4.2113;8.2232;-0.5644;-1.9533;2.1951;0.0172;-0.071;-0.0126;1.0;-25.81;-136.1;-67.24;180.46;-25.43;-21.8;5.0;58.444;42.49661;-83.28533;538.71;NaN;44.14;24.467743;178.2;15 / 20;223006;2018-04-03 08:11:24:671
4.9124;3.3407;7.5176;3.2062;4.024;8.3486;2.7962;-2.6279;3.9543;-0.0077;0.0184;-0.0766;4.0;-21.28;-135.39;-68.22;183.64;-24.89;-21.91;5.0;58.578;42.49661;-83.28533;538.71;NaN;44.14;24.467743;178.2;15 / 20;223507;2018-04-03 08:11:25:172
3.5731;2.8556;8.1942;3.2488;3.9295;8.377;0.9808;-0.5973;-0.058;-0.0454;-0.0118;-0.0597;4.0;-15.8;-133.73;-69.02;186.05;-23.62;-21.2;5.0;50.22;42.49661;-83.28533;538.71;NaN;44.14;24.467743;178.2;16 / 20;224006;2018-04-03 08:11:25:671
4.453;3.1499;9.4457;3.4489;3.8001;8.3567;2.1199;-1.1367;0.4168;-0.0274;-0.0551;-0.0946;4.0;-20.78;-135.93;-70.32;183.72;-23.49;-21.58;5.0;49.977;42.49661;-83.28533;538.71;NaN;44.14;24.467743;178.2;16 / 20;224506;2018-04-03 08:11:26:171
5.1194;2.9543;9.4798;3.5504;3.7935;8.3171;1.8914;-0.6513;-1.1961;-0.0227;-0.0815;-0.1113;4.0;-18.76;-137.03;-69.31;185.55;-22.76;-23.12;5.0;49.157;42.49661;-83.28533;538.71;NaN;44.14;24.467743;178.2;16 / 20;225006;2018-04-03 08:11:26:671
5.6476;2.794;7.7892;3.8032;3.862;8.1726;0.8623;-0.4581;-1.1268;-0.0745;-0.0661;-0.1456;57.0;-20.86;-135.08;-68.56;185.38;-23.07;-24.14;5.0;46.269;42.49661;-83.28533;538.71;NaN;44.14;24.467743;178.2;16 / 20;225506;2018-04-03 08:11:27:171
4.9836;3.522;7.8078;3.9328;3.8783;8.1033;1.8652;-0.1287;0.3745;-0.0559;-0.0758;-0.1828;57.0;-21.22;-133.34;-70.08;187.11;-23.3;-25.89;5.0;48.191;42.49661;-83.28533;538.71;NaN;44.14;24.467743;178.2;16 / 20;226006;2018-04-03 08:11:27:671
5.117;4.0197;8.1864;4.183;3.934;7.9496;1.4522;-0.4749;-0.6466;-0.0739;-0.0769;-0.1827;57.0;-20.39;-131.76;-69.14;188.21;-23.45;-26.93;5.0;49.726;42.49661;-83.28533;538.71;NaN;44.14;24.467743;178.2;16 / 20;226507;2018-04-03 08:11:28:172
4.4674;4.0478;7.1785;4.2908;4.005;7.8562;1.2526;-0.2934;0.4552;-0.023;-0.0945;-0.173;57.0;-18.1;-129.11;-72.23;191.95;-24.1;-28.64;5.0;48.861;42.49661;-83.28533;538.71;NaN;44.14;24.467743;178.2;16 / 20;227007;2018-04-03 08:11:28:672
5.0261;3.8642;6.2405;4.3539;4.217;7.7091;2.1609;0.3448;0.1738;-0.0156;-0.0846;-0.1619;57.0;-22.82;-130.46;-77.44;191.59;-24.61;-29.24;5.0;47.795;42.49661;-83.28533;538.71;NaN;44.14;24.467743;178.2;16 / 20;227507;2018-04-03 08:11:29:172
4.8353;4.3385;7.9525;4.3986;4.2072;7.6891;0.181;-0.2958;-0.8809;0.0104;-0.0845;-0.1708;57.0;-22.6;-126.49;-69.97;190.12;-25.41;-29.77;5.0;45.578;42.49661;-83.28533;538.71;NaN;44.14;24.467743;178.2;17 / 21;228007;2018-04-03 08:11:29:672
5.5136;4.1764;7.6516;4.4361;4.4669;7.5192;0.9448;0.1654;0.6212;-0.0111;-0.0974;-0.165;57.0;-21.58;-125.09;-73.11;193.17;-27.1;-30.54;5.0;45.973;42.49661;-83.28533;538.71;NaN;44.14;24.467743;178.2;17 / 21;228506;2018-04-03 08:11:30:171
5.3067;4.6006;7.7097;4.4634;4.5509;7.4524;1.4729;-0.3653;-0.4619;-0.0464;-0.0956;-0.1793;57.0;-21.71;-125.6;-72.25;193.13;-27.65;-30.92;5.0;47.217;42.49661;-83.28533;538.71;NaN;44.14;24.467743;178.2;17 / 23;229006;2018-04-03 08:11:30:671
5.4783;4.4331;8.3462;4.4622;4.7228;7.3454;0.3213;-0.4658;-1.2254;-0.0474;-0.068;-0.1634;57.0;-23.71;-124.1;-74.92;194.14;-28.02;-31.35;5.0;46.809;42.49661;-83.28533;538.71;NaN;44.14;24.467743;178.2;17 / 23;229506;2018-04-03 08:11:31:171
4.5984;4.518;7.1031;4.4734;4.793;7.2929;1.8179;-0.5528;0.3772;-0.0732;-0.0917;-0.1501;57.0;-25.08;-123.48;-77.02;194.92;-28.79;-31.28;5.0;47.099;42.49661;-83.28533;538.71;NaN;44.14;24.467743;178.2;17 / 23;230006;2018-04-03 08:11:31:671
5.6171;4.3062;7.8072;4.4984;4.8896;7.213;0.8353;-1.0128;-0.2451;-0.0578;-0.0832;-0.191;57.0;-25.54;-122.87;-80.12;197.09;-29.78;-32.02;5.0;47.936;42.49661;-83.28533;538.71;NaN;44.14;24.467743;178.2;17 / 23;230507;2018-04-03 08:11:32:172
5.5118;5.2358;6.9966;4.5275;5.0023;7.1168;1.0477;-0.215;0.8481;-0.0258;-0.1561;-0.1519;57.0;-21.26;-123.8;-81.61;200.82;-29.91;-31.95;5.0;50.465;42.49661;-83.28533;538.71;NaN;44.14;24.467743;178.2;17 / 23;231007;2018-04-03 08:11:32:672
5.2875;4.7034;6.9673;4.6737;5.1014;6.95;0.2851;-0.9136;-0.8609;-0.041;-0.0911;-0.1501;57.0;-20.48;-120.62;-80.5;204.01;-31.02;-33.6;5.0;47.276;42.49661;-83.28533;538.71;NaN;44.14;24.467743;178.2;17 / 23;231506;2018-04-03 08:11:33:171
5.4042;4.914;6.548;4.674;5.1808;6.8908;0.3366;0.0382;0.1118;-0.0332;-0.0873;-0.1323;57.0;-20.46;-119.81;-81.24;204.87;-31.35;-33.92;5.0;45.779;42.49661;-83.28533;538.71;NaN;44.14;24.467743;178.2;17 / 23;232006;2018-04-03 08:11:33:671
4.5074;5.7509;6.7693;4.5473;5.4252;6.7868;0.15;0.098;-1.258;0.0261;-0.0334;-0.1078;63.0;-21.31;-118.83;-81.06;206.23;-32.72;-34.35;5.0;48.324;42.49661;-83.28533;538.71;NaN;44.14;24.467743;178.2;17 / 23;232506;2018-04-03 08:11:34:171
3.9619;5.7545;8.4239;4.447;5.4687;6.8183;-0.5783;0.1974;0.5283;-0.0329;-0.0357;-0.0618;74.0;-22.42;-118.3;-81.09;205.8;-33.89;-33.11;5.0;48.322;42.49661;-83.28533;538.71;NaN;44.14;24.467743;178.2;17 / 23;233007;2018-04-03 08:11:34:672
3.5306;5.8795;7.3244;4.2844;5.561;6.8476;-1.134;-0.0916;-0.3734;-0.0241;-0.018;-0.0289;74.0;-21.9;-117.53;-81.32;205.5;-34.35;-32.45;5.0;49.201;42.49661;-83.28533;538.71;NaN;44.14;24.467743;178.2;17 / 23;233506;2018-04-03 08:11:35:171
3.8805;6.1385;7.0199;4.2791;5.6043;6.8155;-0.2486;0.1878;0.1279;-0.0339;-0.0061;-0.0343;79.0;-22.75;-117.26;-81.63;206.06;-34.85;-32.12;5.0;54.022;42.49661;-83.28533;538.71;NaN;44.14;24.467743;178.2;17 / 23;234006;2018-04-03 08:11:35:671
3.265;6.2133;7.7491;4.1483;5.6445;6.863;-0.9289;-0.3376;-1.1707;-0.0178;-0.04;-0.0066;79.0;-22.78;-117.27;-81.41;204.95;-35.27;-31.46;5.0;55.086;42.49661;-83.28533;538.71;NaN;44.14;24.467743;178.2;17 / 23;234506;2018-04-03 08:11:36:171
3.3906;5.7515;7.4363;4.0687;5.6921;6.8714;-1.3448;-0.0116;0.4065;-0.0231;0.0;-0.0087;79.0;-22.93;-116.96;-81.0;204.1;-35.48;-30.63;5.0;56.604;42.49661;-83.28533;538.71;NaN;44.14;24.467743;178.2;17 / 23;235006;2018-04-03 08:11:36:671
2.772;5.2939;8.397;3.9363;5.6619;6.9727;-0.6854;0.0716;0.6277;-0.0233;7.0E-4;0.0142;84.0;-22.69;-117.4;-80.51;203.53;-35.57;-30.14;5.0;53.167;42.49661;-83.28533;538.71;NaN;44.14;24.467743;178.2;17 / 23;235506;2018-04-03 08:11:37:171
2.6416;5.4321;7.7414;3.8989;5.6366;7.0141;-0.8023;-0.899;1.1394;0.0026;-0.0225;0.0125;84.0;-22.95;-117.57;-84.11;203.36;-35.08;-29.07;5.0;55.9;42.49661;-83.28533;538.71;NaN;44.14;24.467743;178.2;17 / 23;236007;2018-04-03 08:11:37:672
3.5761;4.9738;7.8461;3.869;5.48;7.1533;-0.7535;-1.0455;1.1733;-0.0095;-0.0113;0.0121;79.0;-23.13;-118.51;-81.43;199.77;-34.4;-28.63;5.0;53.771;42.49661;-83.28533;538.71;NaN;44.14;24.467743;178.2;17 / 23;236507;2018-04-03 08:11:38:172
3.8979;4.8536;7.8784;3.878;5.4239;7.1911;-0.4896;-0.5482;0.4644;-0.0179;-0.0225;0.0085;79.0;-23.41;-116.9;-81.13;199.29;-33.58;-28.34;5.0;55.566;42.49661;-83.28533;538.71;NaN;44.14;24.467743;178.2;17 / 23;237007;2018-04-03 08:11:38:672
2.9216;4.9906;8.47;3.791;5.3445;7.2962;-1.0989;-0.3538;1.4046;0.0058;0.014;0.022;83.0;-23.16;-116.76;-81.18;198.71;-33.24;-28.1;5.0;53.001;42.49661;-83.28533;538.71;NaN;44.14;24.467743;178.2;17 / 23;237506;2018-04-03 08:11:39:171
3.1926;4.6035;7.7294;3.7743;5.2867;7.3469;-1.0017;-0.8814;0.9218;-0.0018;-0.0078;0.0419;83.0;-22.66;-116.71;-81.34;197.68;-33.02;-27.46;5.0;55.096;42.49661;-83.28533;538.71;NaN;44.14;24.467743;178.2;17 / 23;238007;2018-04-03 08:11:39:672
2.202;4.981;8.1344;3.6709;5.2246;7.443;-1.3875;-0.1899;1.2533;0.0094;0.0203;0.0481;83.0;-23.0;-117.41;-81.18;196.47;-32.3;-26.93;5.0;50.617;42.49661;-83.28533;538.71;NaN;44.14;24.467743;178.2;17 / 23;238506;2018-04-03 08:11:40:171
2.5531;4.8075;8.6758;3.6525;5.1873;7.4781;-1.5449;-0.5208;0.1375;-0.0198;-0.0164;0.052;83.0;-22.69;-117.39;-81.51;195.57;-31.94;-26.03;5.0;50.176;42.49661;-83.28533;538.71;NaN;44.14;24.467743;178.2;17 / 23;239007;2018-04-03 08:11:40:672
3.5156;4.4953;7.2478;3.7647;5.0888;7.4901;-0.6328;-0.2916;-0.5616;0.0038;-0.0157;0.0556;83.0;-22.81;-116.83;-81.11;194.77;-31.7;-25.95;5.0;49.784;42.49661;-83.28533;538.71;NaN;44.14;24.467743;178.2;17 / 23;239507;2018-04-03 08:11:41:172
3.375;5.0498;8.8313;3.7654;5.0806;7.4953;-0.7273;0.0575;1.0553;0.0041;0.003;0.0151;83.0;-23.49;-117.34;-80.59;195.44;-31.2;-26.67;5.0;51.053;42.49661;-83.28533;538.71;NaN;44.14;24.467743;178.2;16 / 21;240007;2018-04-03 08:11:41:672
3.262;4.9086;6.4068;3.7648;5.0868;7.4914;-0.1383;-0.122;-0.1348;0.0152;-0.009;0.0173;83.0;-23.83;-116.5;-80.43;194.18;-31.18;-26.57;5.0;50.812;42.49661;-83.28533;538.71;NaN;44.14;24.467743;178.2;16 / 21;240507;2018-04-03 08:11:42:172
4.258;5.3968;7.4698;3.7592;5.0928;7.4902;-0.4891;-0.2802;0.2998;0.0068;-0.0016;0.0168;83.0;-23.91;-117.26;-80.81;194.68;-31.29;-26.65;5.0;50.637;42.49661;-83.28533;538.71;NaN;44.14;24.467743;178.2;16 / 21;241006;2018-04-03 08:11:42:671
2.7152;4.9062;7.7779;3.7335;5.1239;7.4818;-0.2914;0.4227;1.12;0.0249;-0.0209;0.0251;83.0;-24.08;-117.72;-80.33;193.89;-31.5;-26.52;5.0;52.339;42.49661;-83.28533;538.71;NaN;44.14;24.467743;178.2;16 / 21;241507;2018-04-03 08:11:43:172
3.4989;5.572;7.0469;3.7089;5.1594;7.4696;-1.2766;-0.3611;0.2148;-0.0281;0.0511;0.0058;83.0;-23.93;-117.8;-80.56;194.4;-31.74;-26.41;5.0;52.546;42.49661;-83.28533;538.71;NaN;44.14;24.467743;178.2;17 / 21;242006;2018-04-03 08:11:43:671
1.7485;5.2341;7.7605;3.6111;5.2042;7.4865;-0.6957;0.235;-0.5258;-0.0096;0.0729;-0.0014;83.0;-23.44;-118.47;-81.07;195.22;-31.98;-26.32;5.0;52.039;42.49661;-83.28533;538.71;NaN;44.14;24.467743;178.2;17 / 21;242506;2018-04-03 08:11:44:171
3.2829;5.5685;8.0644;3.5781;5.2352;7.4807;-0.6118;-0.0695;0.0944;0.0395;0.0155;0.0294;83.0;-23.9;-118.89;-81.27;193.48;-32.05;-25.75;5.0;52.545;42.49661;-83.28533;538.71;NaN;44.14;24.467743;178.2;14 / 19;243007;2018-04-03 08:11:44:672
1.7078;5.4937;8.5627;3.4405;5.2666;7.5231;-1.2787;0.3636;0.0483;0.0139;0.02;0.0465;83.0;-23.02;-118.95;-80.35;192.76;-32.3;-24.9;5.0;55.06;42.49661;-83.28533;538.71;NaN;44.14;24.467743;178.2;14 / 19;243512;2018-04-03 08:11:45:177
2.8785;5.7539;8.2283;3.3828;5.272;7.5454;-1.0056;0.2854;0.5863;0.0409;0.0121;0.0487;78.0;-23.05;-119.04;-80.11;192.4;-32.48;-24.58;5.0;54.19;42.49661;-83.28533;538.71;NaN;44.14;24.467743;178.2;15 / 17;244006;2018-04-03 08:11:45:671
2.1559;5.2323;6.4684;3.3496;5.3059;7.5365;-0.9805;0.1545;0.0204;0.028;-0.0083;0.0448;78.0;-23.15;-119.28;-80.22;191.74;-32.81;-23.98;5.0;58.114;42.49661;-83.28533;538.71;NaN;44.14;24.467743;178.2;15 / 17;244506;2018-04-03 08:11:46:171
2.3138;5.4016;7.8796;3.3268;5.3067;7.546;-0.6605;0.3532;2.5844;0.0501;0.0158;0.0213;78.0;-22.96;-119.59;-79.99;191.28;-32.76;-23.79;5.0;56.623;42.49661;-83.28533;538.71;NaN;44.14;24.467743;178.2;16 / 21;245007;2018-04-03 08:11:46:672
2.7942;5.0797;7.7222;3.2629;5.3539;7.5406;-0.5735;0.1128;0.9661;0.0126;0.0231;0.0286;78.0;-23.15;-119.73;-79.87;191.23;-32.9;-23.71;5.0;54.168;42.49661;-83.28533;538.71;NaN;44.14;24.467743;178.2;16 / 21;245507;2018-04-03 08:11:47:172
1.8377;5.2598;8.062;3.1867;5.3629;7.5667;-0.9277;-0.3726;0.4731;0.0265;0.0079;0.0334;72.0;-22.92;-120.18;-79.73;190.88;-33.09;-23.4;5.0;52.888;42.49661;-83.28533;538.71;NaN;44.14;24.467743;178.2;12 / 18;246006;2018-04-03 08:11:47:671
3.1519;4.6783;7.5697;3.233;5.2972;7.5933;0.1817;-0.3311;1.19;0.0063;0.0105;0.0252;72.0;-22.58;-120.5;-79.49;189.89;-33.1;-23.14;5.0;52.056;42.49661;-83.28533;538.71;NaN;44.14;24.467743;178.2;12 / 18;246506;2018-04-03 08:11:48:171
2.8049;4.8171;6.7519;3.2231;5.2764;7.6119;-0.0382;-0.9278;1.331;0.0197;0.0094;0.0305;67.0;-23.39;-120.53;-79.15;189.42;-32.55;-22.95;5.0;50.107;42.49661;-83.28533;538.71;NaN;44.14;24.467743;178.2;12 / 18;247007;2018-04-03 08:11:48:672
3.1806;5.4757;7.9866;3.2392;5.2226;7.6421;0.2836;-0.2856;0.3285;0.0182;0.0225;0.0145;67.0;-23.59;-120.32;-78.01;188.25;-32.34;-23.01;5.0;50.384;42.49661;-83.28533;538.71;NaN;44.14;24.467743;178.2;14 / 19;247506;2018-04-03 08:11:49:171
3.0843;4.6478;8.0913;3.2273;5.2075;7.6575;0.1279;-0.7166;1.0555;0.0263;0.017;0.0238;72.0;-23.93;-120.49;-78.71;188.39;-32.07;-22.85;5.0;49.98;42.49661;-83.28533;538.71;NaN;44.14;24.467743;178.2;14 / 19;248006;2018-04-03 08:11:49:671
2.4843;5.3459;6.7537;3.1527;5.2092;7.6873;-0.9536;-0.5634;0.073;0.0278;0.028;0.0404;77.0;-23.3;-120.47;-78.4;188.32;-32.16;-22.48;5.0;50.248;42.49661;-83.28533;538.71;NaN;44.14;24.467743;178.2;14 / 19;248507;2018-04-03 08:11:50:172
2.6907;4.9098;8.1278;3.1429;5.2002;7.6974;-0.0209;-0.1281;0.2663;0.0339;0.0112;0.0264;72.0;-23.16;-121.35;-78.63;188.24;-32.02;-22.21;5.0;49.874;42.49661;-83.28533;538.71;NaN;44.14;24.467743;178.2;16 / 19;249006;2018-04-03 08:11:50:671
2.8414;5.1551;8.1278;3.0544;5.1734;7.7509;-0.8984;-0.4725;-1.5988;0.0275;0.0376;0.0267;77.0;-23.25;-121.75;-78.57;187.91;-32.02;-22.05;5.0;51.027;42.49661;-83.28533;538.71;NaN;44.14;24.467743;178.2;16 / 19;249507;2018-04-03 08:11:51:172
2.4215;4.588;7.922;3.0471;5.1559;7.7654;0.1287;0.2533;-0.7764;0.0214;0.0163;0.0332;77.0;-23.18;-122.11;-78.47;186.6;-31.72;-21.42;5.0;51.004;42.49661;-83.28533;538.71;NaN;44.14;24.467743;178.2;16 / 19;250007;2018-04-03 08:11:51:672
2.522;5.0965;8.1224;2.957;5.133;7.8153;-0.664;-0.6539;1.5741;0.0146;0.0178;0.0419;77.0;-22.34;-122.39;-77.98;186.71;-31.62;-20.88;5.0;50.72;42.49661;-83.28533;538.71;NaN;44.14;24.467743;178.2;16 / 19;250506;2018-04-03 08:11:52:171
